"subject","danish","trial","colour1","colour2","col1_name","col2_name","colour_distance","category","accuracy","rt"
1,"No",1,"[1, -0.625, -0.25]","[1, -0.925, -0.85]","pink","red",0.6,"across",1,839.738026668783
1,"No",2,"[1, -0.475, 0.050000000000000044]","[1, -0.625, -0.25]","pink","pink",0.3,"within",1,809.828693338204
1,"No",3,"[1, -0.625, -0.25]","[1, -0.55, -0.10000000000000009]","pink","pink",0.15,"within",1,664.910933293868
1,"No",5,"[1, -0.7, -0.4]","[1, -0.925, -0.85]","pink","red",0.45,"across",1,448.217173281591
1,"No",7,"[1, -1.0, -1.0]","[1, -0.625, -0.25]","red","pink",0.75,"across",1,411.918080004398
1,"No",8,"[1, -0.55, -0.10000000000000009]","[1, -1.0, -1.0]","pink","red",0.9,"across",1,431.744426663499
1,"No",9,"[1, -0.4, 0.19999999999999996]","[1, -0.55, -0.10000000000000009]","pink","pink",0.3,"within",1,1056.01749330526
1,"No",10,"[1, -0.775, -0.55]","[1, -0.925, -0.85]","pink","red",0.3,"across",1,573.07562668575
1,"No",11,"[1, -0.55, -0.10000000000000009]","[1, -0.625, -0.25]","pink","pink",0.15,"within",1,522.626133344602
1,"No",13,"[1, -0.625, -0.25]","[1, -0.475, 0.050000000000000044]","pink","pink",0.3,"within",1,578.624426678289
1,"No",14,"[1, -0.55, -0.10000000000000009]","[1, -0.775, -0.55]","pink","pink",0.45,"within",1,462.423466669861
1,"No",15,"[1, -0.775, -0.55]","[1, -0.85, -0.7]","pink","pink",0.15,"within",1,903.131733299233
1,"No",16,"[1, -0.55, -0.10000000000000009]","[1, -0.85, -0.7]","pink","pink",0.6,"within",1,563.75978665892
1,"No",17,"[1, -0.925, -0.85]","[1, -0.625, -0.25]","red","pink",0.6,"across",1,554.099626664538
1,"No",18,"[1, -0.85, -0.7]","[1, -0.7, -0.4]","pink","pink",0.3,"within",1,443.70090670418
1,"No",19,"[1, -0.7, -0.4]","[1, -0.4, 0.19999999999999996]","pink","pink",0.6,"within",1,453.526186698582
1,"No",20,"[1, -1.0, -1.0]","[1, -0.32500000000000007, 0.34999999999999987]","red","pink",1.35,"across",1,632.195413345471
1,"No",21,"[1, -0.85, -0.7]","[1, -0.775, -0.55]","pink","pink",0.15,"within",1,545.01461336622
1,"No",22,"[1, -0.775, -0.55]","[1, -0.55, -0.10000000000000009]","pink","pink",0.45,"within",1,581.395199988037
1,"No",23,"[1, -1.0, -1.0]","[1, -0.775, -0.55]","red","pink",0.45,"across",1,639.907839999069
1,"No",24,"[1, -0.625, -0.25]","[1, -0.775, -0.55]","pink","pink",0.3,"within",1,680.775253335014
1,"No",25,"[1, -0.475, 0.050000000000000044]","[1, -1.0, -1.0]","pink","red",1.05,"across",1,450.737493345514
1,"No",26,"[1, -0.4, 0.19999999999999996]","[1, -0.475, 0.050000000000000044]","pink","pink",0.15,"within",1,748.243626614567
1,"No",27,"[1, -0.925, -0.85]","[1, -0.55, -0.10000000000000009]","red","pink",0.75,"across",1,585.402026656084
1,"No",28,"[1, -0.7, -0.4]","[1, -0.475, 0.050000000000000044]","pink","pink",0.45,"within",1,566.406400001142
1,"No",29,"[1, -0.85, -0.7]","[1, -0.925, -0.85]","pink","red",0.15,"across",1,533.313706633635
1,"No",30,"[1, -0.32500000000000007, 0.34999999999999987]","[1, -0.7, -0.4]","pink","pink",0.75,"within",1,449.736533337273
1,"No",31,"[1, -0.925, -0.85]","[1, -0.85, -0.7]","red","pink",0.15,"across",1,634.305279992986
1,"No",32,"[1, -0.85, -0.7]","[1, -0.4, 0.19999999999999996]","pink","pink",0.9,"within",1,440.690773364622
1,"No",33,"[1, -0.55, -0.10000000000000009]","[1, -0.32500000000000007, 0.34999999999999987]","pink","pink",0.45,"within",1,544.035839964636
1,"No",34,"[1, -0.775, -0.55]","[1, -1.0, -1.0]","pink","red",0.45,"across",1,529.807786631864
1,"No",35,"[1, -1.0, -1.0]","[1, -0.475, 0.050000000000000044]","red","pink",1.05,"across",1,457.910613331478
1,"No",36,"[1, -0.625, -0.25]","[1, -0.32500000000000007, 0.34999999999999987]","pink","pink",0.6,"within",1,481.057706638239
1,"No",37,"[1, -0.925, -0.85]","[1, -1.0, -1.0]","red","red",0.15,"within",1,1992.25770664634
1,"No",38,"[1, -1.0, -1.0]","[1, -0.85, -0.7]","red","pink",0.3,"across",1,592.897706665099
1,"No",39,"[1, -0.32500000000000007, 0.34999999999999987]","[1, -0.925, -0.85]","pink","red",1.2,"across",1,474.936746701133
1,"No",40,"[1, -0.775, -0.55]","[1, -0.475, 0.050000000000000044]","pink","pink",0.6,"within",1,484.198399994057
1,"No",41,"[1, -0.475, 0.050000000000000044]","[1, -0.55, -0.10000000000000009]","pink","pink",0.15,"within",1,743.640320026316
1,"No",42,"[1, -0.4, 0.19999999999999996]","[1, -0.32500000000000007, 0.34999999999999987]","pink","pink",0.15,"within",1,1477.20405337168
1,"No",43,"[1, -0.625, -0.25]","[1, -0.4, 0.19999999999999996]","pink","pink",0.45,"within",1,487.181226664688
1,"No",44,"[1, -0.625, -0.25]","[1, -0.85, -0.7]","pink","pink",0.45,"within",1,465.577813331038
1,"No",45,"[1, -0.4, 0.19999999999999996]","[1, -0.85, -0.7]","pink","pink",0.9,"within",1,499.073279963341
1,"No",46,"[1, -1.0, -1.0]","[1, -0.7, -0.4]","red","pink",0.6,"across",1,494.216106657404
1,"No",47,"[1, -0.32500000000000007, 0.34999999999999987]","[1, -1.0, -1.0]","pink","red",1.35,"across",1,447.36853329232
1,"No",48,"[1, -0.4, 0.19999999999999996]","[1, -0.775, -0.55]","pink","pink",0.75,"within",1,490.428160002921
1,"No",49,"[1, -0.32500000000000007, 0.34999999999999987]","[1, -0.775, -0.55]","pink","pink",0.9,"within",1,432.443733327091
1,"No",50,"[1, -0.925, -0.85]","[1, -0.4, 0.19999999999999996]","red","pink",1.05,"across",1,395.197013334837
1,"No",51,"[1, -0.85, -0.7]","[1, -1.0, -1.0]","pink","red",0.3,"across",1,482.235306699295
1,"No",52,"[1, -0.475, 0.050000000000000044]","[1, -0.925, -0.85]","pink","red",0.9,"across",1,425.518506672233
1,"No",53,"[1, -0.7, -0.4]","[1, -0.85, -0.7]","pink","pink",0.3,"within",1,400.332800054457
1,"No",54,"[1, -0.775, -0.55]","[1, -0.32500000000000007, 0.34999999999999987]","pink","pink",0.9,"within",1,453.515519970097
1,"No",55,"[1, -0.775, -0.55]","[1, -0.4, 0.19999999999999996]","pink","pink",0.75,"within",1,463.455573306419
1,"No",56,"[1, -0.475, 0.050000000000000044]","[1, -0.775, -0.55]","pink","pink",0.6,"within",1,422.673493332695
1,"No",57,"[1, -0.775, -0.55]","[1, -0.625, -0.25]","pink","pink",0.3,"within",1,442.616320040543
1,"No",58,"[1, -0.625, -0.25]","[1, -1.0, -1.0]","pink","red",0.75,"across",1,443.01141332835
1,"No",59,"[1, -1.0, -1.0]","[1, -0.925, -0.85]","red","red",0.15,"within",1,582.487040024716
1,"No",61,"[1, -0.32500000000000007, 0.34999999999999987]","[1, -0.85, -0.7]","pink","pink",1.05,"within",1,410.188373352867
1,"No",62,"[1, -0.55, -0.10000000000000009]","[1, -0.925, -0.85]","pink","red",0.75,"across",1,453.122986713424
1,"No",63,"[1, -0.475, 0.050000000000000044]","[1, -0.4, 0.19999999999999996]","pink","pink",0.15,"within",1,1372.87722667679
1,"No",64,"[1, -0.775, -0.55]","[1, -0.7, -0.4]","pink","pink",0.15,"within",1,587.227733340114
1,"No",65,"[1, -0.32500000000000007, 0.34999999999999987]","[1, -0.475, 0.050000000000000044]","pink","pink",0.3,"within",1,556.212053343188
1,"No",66,"[1, -1.0, -1.0]","[1, -0.55, -0.10000000000000009]","red","pink",0.9,"across",1,440.618666645605
1,"No",67,"[1, -0.475, 0.050000000000000044]","[1, -0.85, -0.7]","pink","pink",0.75,"within",1,536.407040024642
1,"No",68,"[1, -0.85, -0.7]","[1, -0.32500000000000007, 0.34999999999999987]","pink","pink",1.05,"within",1,440.261546697002
1,"No",69,"[1, -0.4, 0.19999999999999996]","[1, -0.7, -0.4]","pink","pink",0.6,"within",1,454.636800044682
1,"No",70,"[1, -0.55, -0.10000000000000009]","[1, -0.7, -0.4]","pink","pink",0.3,"within",1,458.821120031644
1,"No",72,"[1, -0.475, 0.050000000000000044]","[1, -0.7, -0.4]","pink","pink",0.45,"within",1,593.95498665981
1,"No",73,"[1, -1.0, -1.0]","[1, -0.4, 0.19999999999999996]","red","pink",1.2,"across",1,487.314346653875
1,"No",74,"[1, -0.85, -0.7]","[1, -0.625, -0.25]","pink","pink",0.45,"within",1,491.253333340865
1,"No",75,"[1, -0.32500000000000007, 0.34999999999999987]","[1, -0.625, -0.25]","pink","pink",0.6,"within",1,461.900373338722
1,"No",76,"[1, -0.7, -0.4]","[1, -0.55, -0.10000000000000009]","pink","pink",0.3,"within",1,525.044906651601
1,"No",77,"[1, -0.925, -0.85]","[1, -0.7, -0.4]","red","pink",0.45,"across",1,438.126080029178
1,"No",78,"[1, -0.55, -0.10000000000000009]","[1, -0.4, 0.19999999999999996]","pink","pink",0.3,"within",1,623.909546644427
1,"No",79,"[1, -0.4, 0.19999999999999996]","[1, -0.925, -0.85]","pink","red",1.05,"across",1,422.423039970454
1,"No",80,"[1, -0.625, -0.25]","[1, -0.7, -0.4]","pink","pink",0.15,"within",1,2473.07007998461
1,"No",81,"[1, -0.7, -0.4]","[1, -0.775, -0.55]","pink","pink",0.15,"within",1,636.19370671222
1,"No",82,"[1, -0.4, 0.19999999999999996]","[1, -0.625, -0.25]","pink","pink",0.45,"within",1,485.597439983394
1,"No",83,"[1, -0.32500000000000007, 0.34999999999999987]","[1, -0.55, -0.10000000000000009]","pink","pink",0.45,"within",1,489.624746667687
1,"No",84,"[1, -0.475, 0.050000000000000044]","[1, -0.32500000000000007, 0.34999999999999987]","pink","pink",0.3,"within",1,614.719999954104
1,"No",85,"[1, -0.925, -0.85]","[1, -0.32500000000000007, 0.34999999999999987]","red","pink",1.2,"across",1,492.177920008544
1,"No",86,"[1, -0.4, 0.19999999999999996]","[1, -1.0, -1.0]","pink","red",1.2,"across",1,403.452586673666
1,"No",87,"[1, -0.925, -0.85]","[1, -0.475, 0.050000000000000044]","red","pink",0.9,"across",1,449.180160008837
1,"No",88,"[1, -0.7, -0.4]","[1, -0.32500000000000007, 0.34999999999999987]","pink","pink",0.75,"within",1,435.349333332852
1,"No",89,"[1, -0.85, -0.7]","[1, -0.55, -0.10000000000000009]","pink","pink",0.6,"within",1,407.248213305138
1,"No",90,"[1, -0.55, -0.10000000000000009]","[1, -0.475, 0.050000000000000044]","pink","pink",0.15,"within",1,1919.21279998496
1,"No",91,"[1, -0.925, -0.85]","[1, -0.85, -0.7]","red","pink",0.15,"across",1,1323.93557333853
1,"No",92,"[1, -0.925, -0.85]","[1, -0.4, 0.19999999999999996]","red","pink",1.05,"across",1,476.055466686375
1,"No",93,"[1, -0.925, -0.85]","[1, -0.625, -0.25]","red","pink",0.6,"across",1,522.904746700078
1,"No",95,"[1, -0.85, -0.7]","[1, -0.7, -0.4]","pink","pink",0.3,"within",1,500.688639993314
1,"No",97,"[1, -0.775, -0.55]","[1, -0.4, 0.19999999999999996]","pink","pink",0.75,"within",1,557.114026683848
1,"No",98,"[1, -0.475, 0.050000000000000044]","[1, -0.625, -0.25]","pink","pink",0.3,"within",1,545.83637334872
1,"No",99,"[1, -0.55, -0.10000000000000009]","[1, -0.7, -0.4]","pink","pink",0.3,"within",1,639.752106682863
1,"No",100,"[1, -0.32500000000000007, 0.34999999999999987]","[1, -0.85, -0.7]","pink","pink",1.05,"within",1,523.320320004132
1,"No",102,"[1, -0.775, -0.55]","[1, -0.475, 0.050000000000000044]","pink","pink",0.6,"within",1,628.843946673442
1,"No",103,"[1, -0.7, -0.4]","[1, -1.0, -1.0]","pink","red",0.6,"across",1,630.740906635765
1,"No",104,"[1, -0.32500000000000007, 0.34999999999999987]","[1, -0.925, -0.85]","pink","red",1.2,"across",1,565.118719998281
1,"No",106,"[1, -0.55, -0.10000000000000009]","[1, -0.85, -0.7]","pink","pink",0.6,"within",1,551.691520027816
1,"No",107,"[1, -0.32500000000000007, 0.34999999999999987]","[1, -0.55, -0.10000000000000009]","pink","pink",0.45,"within",1,486.137600033544
1,"No",108,"[1, -0.85, -0.7]","[1, -0.475, 0.050000000000000044]","pink","pink",0.75,"within",1,495.915946667083
1,"No",109,"[1, -0.55, -0.10000000000000009]","[1, -0.775, -0.55]","pink","pink",0.45,"within",1,421.304319985211
1,"No",110,"[1, -0.775, -0.55]","[1, -0.625, -0.25]","pink","pink",0.3,"within",1,468.747093284037
1,"No",111,"[1, -0.7, -0.4]","[1, -0.85, -0.7]","pink","pink",0.3,"within",1,514.439253369346
1,"No",112,"[1, -0.85, -0.7]","[1, -0.625, -0.25]","pink","pink",0.45,"within",1,498.851413372904
1,"No",113,"[1, -0.32500000000000007, 0.34999999999999987]","[1, -0.7, -0.4]","pink","pink",0.75,"within",1,475.01056001056
1,"No",114,"[1, -0.775, -0.55]","[1, -0.55, -0.10000000000000009]","pink","pink",0.45,"within",1,567.790079978295
1,"No",115,"[1, -0.625, -0.25]","[1, -0.7, -0.4]","pink","pink",0.15,"within",1,570.324906671885
1,"No",116,"[1, -0.7, -0.4]","[1, -0.32500000000000007, 0.34999999999999987]","pink","pink",0.75,"within",1,591.906986723188
1,"No",117,"[1, -1.0, -1.0]","[1, -0.475, 0.050000000000000044]","red","pink",1.05,"across",1,465.222826693207
1,"No",118,"[1, -0.4, 0.19999999999999996]","[1, -0.55, -0.10000000000000009]","pink","pink",0.3,"within",1,463.73461332405
1,"No",119,"[1, -0.32500000000000007, 0.34999999999999987]","[1, -0.625, -0.25]","pink","pink",0.6,"within",1,456.276906654239
1,"No",120,"[1, -0.475, 0.050000000000000044]","[1, -0.925, -0.85]","pink","red",0.9,"across",1,394.41109332256
1,"No",121,"[1, -0.475, 0.050000000000000044]","[1, -0.32500000000000007, 0.34999999999999987]","pink","pink",0.3,"within",1,685.291946632788
1,"No",122,"[1, -0.475, 0.050000000000000044]","[1, -0.85, -0.7]","pink","pink",0.75,"within",1,536.950613372028
1,"No",123,"[1, -0.85, -0.7]","[1, -0.55, -0.10000000000000009]","pink","pink",0.6,"within",1,409.615359967574
1,"No",124,"[1, -0.7, -0.4]","[1, -0.4, 0.19999999999999996]","pink","pink",0.6,"within",1,377.863680012524
1,"No",125,"[1, -0.625, -0.25]","[1, -0.32500000000000007, 0.34999999999999987]","pink","pink",0.6,"within",1,554.684159986209
1,"No",126,"[1, -0.4, 0.19999999999999996]","[1, -0.475, 0.050000000000000044]","pink","pink",0.15,"within",1,530.558719998226
1,"No",127,"[1, -0.55, -0.10000000000000009]","[1, -0.625, -0.25]","pink","pink",0.15,"within",1,467.619839997496
1,"No",128,"[1, -1.0, -1.0]","[1, -0.7, -0.4]","red","pink",0.6,"across",1,454.457173298579
1,"No",129,"[1, -1.0, -1.0]","[1, -0.55, -0.10000000000000009]","red","pink",0.9,"across",1,510.286506672855
1,"No",130,"[1, -0.55, -0.10000000000000009]","[1, -0.32500000000000007, 0.34999999999999987]","pink","pink",0.45,"within",1,683.620693336707
1,"No",131,"[1, -0.775, -0.55]","[1, -0.32500000000000007, 0.34999999999999987]","pink","pink",0.9,"within",1,518.853546702303
1,"No",132,"[1, -1.0, -1.0]","[1, -0.4, 0.19999999999999996]","red","pink",1.2,"across",1,440.840533294249
1,"No",134,"[1, -0.85, -0.7]","[1, -0.925, -0.85]","pink","red",0.15,"across",1,713.239466655068
1,"No",136,"[1, -0.7, -0.4]","[1, -0.925, -0.85]","pink","red",0.45,"across",1,508.429226640146
1,"No",137,"[1, -0.7, -0.4]","[1, -0.775, -0.55]","pink","pink",0.15,"within",1,558.729386655614
1,"No",138,"[1, -0.925, -0.85]","[1, -0.32500000000000007, 0.34999999999999987]","red","pink",1.2,"across",1,485.622186679393
1,"No",139,"[1, -0.775, -0.55]","[1, -1.0, -1.0]","pink","red",0.45,"across",1,481.382399972063
1,"No",140,"[1, -0.775, -0.55]","[1, -0.925, -0.85]","pink","red",0.3,"across",1,489.466026658192
1,"No",141,"[1, -0.625, -0.25]","[1, -0.775, -0.55]","pink","pink",0.3,"within",1,470.663253334351
1,"No",142,"[1, -0.7, -0.4]","[1, -0.625, -0.25]","pink","pink",0.15,"within",1,521.136213326827
1,"No",143,"[1, -0.55, -0.10000000000000009]","[1, -0.4, 0.19999999999999996]","pink","pink",0.3,"within",1,494.062506651971
1,"No",144,"[1, -0.4, 0.19999999999999996]","[1, -0.85, -0.7]","pink","pink",0.9,"within",1,481.66698665591
1,"No",145,"[1, -0.85, -0.7]","[1, -1.0, -1.0]","pink","red",0.3,"across",1,610.54037330905
1,"No",146,"[1, -0.4, 0.19999999999999996]","[1, -0.775, -0.55]","pink","pink",0.75,"within",1,485.236053355038
1,"No",147,"[1, -0.4, 0.19999999999999996]","[1, -1.0, -1.0]","pink","red",1.2,"across",1,482.858240022324
1,"No",148,"[1, -0.625, -0.25]","[1, -0.925, -0.85]","pink","red",0.6,"across",1,500.629333313555
1,"No",149,"[1, -0.625, -0.25]","[1, -0.475, 0.050000000000000044]","pink","pink",0.3,"within",1,502.069333335385
1,"No",150,"[1, -0.475, 0.050000000000000044]","[1, -1.0, -1.0]","pink","red",1.05,"across",1,435.9189333627
1,"No",151,"[1, -1.0, -1.0]","[1, -0.775, -0.55]","red","pink",0.45,"across",1,493.981866631657
1,"No",152,"[1, -0.4, 0.19999999999999996]","[1, -0.7, -0.4]","pink","pink",0.6,"within",1,467.201280000154
1,"No",153,"[1, -0.475, 0.050000000000000044]","[1, -0.7, -0.4]","pink","pink",0.45,"within",1,452.668159967288
1,"No",154,"[1, -0.4, 0.19999999999999996]","[1, -0.625, -0.25]","pink","pink",0.45,"within",1,418.30101335654
1,"No",155,"[1, -1.0, -1.0]","[1, -0.32500000000000007, 0.34999999999999987]","red","pink",1.35,"across",1,423.672320030164
1,"No",156,"[1, -0.85, -0.7]","[1, -0.32500000000000007, 0.34999999999999987]","pink","pink",1.05,"within",1,377.106773317792
1,"No",158,"[1, -0.32500000000000007, 0.34999999999999987]","[1, -1.0, -1.0]","pink","red",1.35,"across",1,420.571306662168
1,"No",159,"[1, -0.475, 0.050000000000000044]","[1, -0.775, -0.55]","pink","pink",0.6,"within",1,473.990400030743
1,"No",160,"[1, -0.32500000000000007, 0.34999999999999987]","[1, -0.475, 0.050000000000000044]","pink","pink",0.3,"within",1,532.330666668713
1,"No",161,"[1, -0.625, -0.25]","[1, -1.0, -1.0]","pink","red",0.75,"across",1,403.567786677741
1,"No",162,"[1, -0.55, -0.10000000000000009]","[1, -0.475, 0.050000000000000044]","pink","pink",0.15,"within",1,3349.69173331046
1,"No",163,"[1, -0.55, -0.10000000000000009]","[1, -1.0, -1.0]","pink","red",0.9,"across",1,432.939946651459
1,"No",164,"[1, -0.7, -0.4]","[1, -0.475, 0.050000000000000044]","pink","pink",0.45,"within",1,561.078186670784
1,"No",165,"[1, -0.4, 0.19999999999999996]","[1, -0.925, -0.85]","pink","red",1.05,"across",1,407.936853356659
1,"No",166,"[1, -0.32500000000000007, 0.34999999999999987]","[1, -0.775, -0.55]","pink","pink",0.9,"within",1,531.407359987497
1,"No",167,"[1, -0.925, -0.85]","[1, -0.775, -0.55]","red","pink",0.3,"across",1,702.433706668671
1,"No",168,"[1, -1.0, -1.0]","[1, -0.85, -0.7]","red","pink",0.3,"across",1,525.079893355723
1,"No",169,"[1, -0.625, -0.25]","[1, -0.85, -0.7]","pink","pink",0.45,"within",1,526.057813316584
1,"No",170,"[1, -0.925, -0.85]","[1, -1.0, -1.0]","red","red",0.15,"within",1,7427.87498666439
1,"No",171,"[1, -0.7, -0.4]","[1, -0.55, -0.10000000000000009]","pink","pink",0.3,"within",1,551.988053310197
1,"No",172,"[1, -0.85, -0.7]","[1, -0.4, 0.19999999999999996]","pink","pink",0.9,"within",1,422.054826689418
1,"No",173,"[1, -0.925, -0.85]","[1, -0.7, -0.4]","red","pink",0.45,"across",1,647.174399986397
1,"No",174,"[1, -1.0, -1.0]","[1, -0.625, -0.25]","red","pink",0.75,"across",1,447.423573350534
1,"No",175,"[1, -0.55, -0.10000000000000009]","[1, -0.925, -0.85]","pink","red",0.75,"across",1,468.292693316471
1,"No",176,"[1, -0.925, -0.85]","[1, -0.55, -0.10000000000000009]","red","pink",0.75,"across",1,487.482880009338
1,"No",177,"[1, -0.625, -0.25]","[1, -0.4, 0.19999999999999996]","pink","pink",0.45,"within",1,561.22709333431
1,"No",178,"[1, -0.925, -0.85]","[1, -0.475, 0.050000000000000044]","red","pink",0.9,"across",1,487.178666633554
1,"No",179,"[1, -1.0, -1.0]","[1, -0.925, -0.85]","red","red",0.15,"within",1,2229.0363733191
1,"No",180,"[1, -0.775, -0.55]","[1, -0.7, -0.4]","pink","pink",0.15,"within",1,1478.45247999066
2,"No",1,"[1, -0.775, -0.55]","[1, -1.0, -1.0]","pink","red",0.45,"across",1,1135.15979579824
2,"No",2,"[1, -0.32500000000000007, 0.34999999999999987]","[1, -0.85, -0.7]","pink","red",1.05,"across",1,748.401426244527
2,"No",3,"[1, -0.625, -0.25]","[1, -1.0, -1.0]","pink","red",0.75,"across",1,611.150911514414
2,"No",4,"[1, -0.925, -0.85]","[1, -0.7, -0.4]","red","pink",0.45,"across",1,539.507095309091
2,"No",5,"[1, -0.7, -0.4]","[1, -0.775, -0.55]","pink","pink",0.15,"within",1,1028.0045488762
2,"No",6,"[1, -1.0, -1.0]","[1, -0.7, -0.4]","red","pink",0.6,"across",1,658.418402425013
2,"No",7,"[1, -0.55, -0.10000000000000009]","[1, -0.4, 0.19999999999999996]","pink","pink",0.3,"within",1,878.723932735738
2,"No",8,"[1, -0.625, -0.25]","[1, -0.7, -0.4]","pink","pink",0.15,"within",1,633.005441835849
2,"No",9,"[1, -0.85, -0.7]","[1, -0.925, -0.85]","red","red",0.15,"within",1,834.821914264467
2,"No",10,"[1, -0.775, -0.55]","[1, -0.32500000000000007, 0.34999999999999987]","pink","pink",0.9,"within",1,520.047089928994
2,"No",11,"[1, -0.85, -0.7]","[1, -0.475, 0.050000000000000044]","red","pink",0.75,"across",1,494.203053254751
2,"No",12,"[1, -0.925, -0.85]","[1, -0.55, -0.10000000000000009]","red","pink",0.75,"across",1,424.09674168448
2,"No",13,"[1, -0.85, -0.7]","[1, -0.625, -0.25]","red","pink",0.45,"across",1,487.169328742311
2,"No",14,"[1, -0.775, -0.55]","[1, -0.85, -0.7]","pink","red",0.15,"across",1,526.550180336926
2,"No",15,"[1, -0.32500000000000007, 0.34999999999999987]","[1, -0.55, -0.10000000000000009]","pink","pink",0.45,"within",1,422.217455299688
2,"No",16,"[1, -0.925, -0.85]","[1, -0.625, -0.25]","red","pink",0.6,"across",1,443.552641561837
2,"No",17,"[1, -0.625, -0.25]","[1, -0.4, 0.19999999999999996]","pink","pink",0.45,"within",1,427.147118040011
2,"No",18,"[1, -0.4, 0.19999999999999996]","[1, -0.625, -0.25]","pink","pink",0.45,"within",1,443.688122628373
2,"No",19,"[1, -0.475, 0.050000000000000044]","[1, -0.4, 0.19999999999999996]","pink","pink",0.15,"within",1,1205.62739016896
2,"No",20,"[1, -0.55, -0.10000000000000009]","[1, -0.775, -0.55]","pink","pink",0.45,"within",1,478.575519402511
2,"No",21,"[1, -0.85, -0.7]","[1, -1.0, -1.0]","red","red",0.3,"within",1,578.943370972411
2,"No",22,"[1, -0.32500000000000007, 0.34999999999999987]","[1, -1.0, -1.0]","pink","red",1.35,"across",1,382.859183868277
2,"No",23,"[1, -0.55, -0.10000000000000009]","[1, -0.32500000000000007, 0.34999999999999987]","pink","pink",0.45,"within",1,439.954182773363
2,"No",24,"[1, -1.0, -1.0]","[1, -0.925, -0.85]","red","red",0.15,"within",1,738.982414157363
2,"No",25,"[1, -0.4, 0.19999999999999996]","[1, -0.55, -0.10000000000000009]","pink","pink",0.3,"within",1,609.241860365728
2,"No",26,"[1, -0.7, -0.4]","[1, -0.85, -0.7]","pink","red",0.3,"across",1,478.447222936666
2,"No",27,"[1, -0.32500000000000007, 0.34999999999999987]","[1, -0.775, -0.55]","pink","pink",0.9,"within",1,419.313850070466
2,"No",28,"[1, -0.475, 0.050000000000000044]","[1, -0.85, -0.7]","pink","red",0.75,"across",1,732.8549757367
2,"No",29,"[1, -0.32500000000000007, 0.34999999999999987]","[1, -0.4, 0.19999999999999996]","pink","pink",0.15,"within",1,610.08040595334
2,"No",30,"[1, -0.55, -0.10000000000000009]","[1, -0.625, -0.25]","pink","pink",0.15,"within",1,565.643647889374
2,"No",31,"[1, -0.775, -0.55]","[1, -0.925, -0.85]","pink","red",0.3,"across",1,476.225128441001
2,"No",32,"[1, -0.4, 0.19999999999999996]","[1, -1.0, -1.0]","pink","red",1.2,"across",1,354.559039973537
2,"No",33,"[1, -0.775, -0.55]","[1, -0.625, -0.25]","pink","pink",0.3,"within",1,404.049651755486
2,"No",34,"[1, -0.625, -0.25]","[1, -0.32500000000000007, 0.34999999999999987]","pink","pink",0.6,"within",1,451.842644906719
2,"No",35,"[1, -0.85, -0.7]","[1, -0.7, -0.4]","red","pink",0.3,"across",1,467.80785502051
2,"No",37,"[1, -0.85, -0.7]","[1, -0.32500000000000007, 0.34999999999999987]","red","pink",1.05,"across",1,449.918198180967
2,"No",38,"[1, -0.32500000000000007, 0.34999999999999987]","[1, -0.625, -0.25]","pink","pink",0.6,"within",1,476.796817427385
2,"No",39,"[1, -0.55, -0.10000000000000009]","[1, -1.0, -1.0]","pink","red",0.9,"across",1,433.846245432505
2,"No",40,"[1, -0.625, -0.25]","[1, -0.55, -0.10000000000000009]","pink","pink",0.15,"within",1,693.059470024309
2,"No",41,"[1, -1.0, -1.0]","[1, -0.4, 0.19999999999999996]","red","pink",1.2,"across",1,432.500672279275
2,"No",42,"[1, -0.925, -0.85]","[1, -0.475, 0.050000000000000044]","red","pink",0.9,"across",1,513.223771587946
2,"No",43,"[1, -0.32500000000000007, 0.34999999999999987]","[1, -0.925, -0.85]","pink","red",1.2,"across",1,395.488686306635
2,"No",44,"[1, -0.625, -0.25]","[1, -0.475, 0.050000000000000044]","pink","pink",0.3,"within",1,456.461317080539
2,"No",45,"[1, -0.925, -0.85]","[1, -0.32500000000000007, 0.34999999999999987]","red","pink",1.2,"across",1,406.754140887642
2,"No",46,"[1, -0.32500000000000007, 0.34999999999999987]","[1, -0.475, 0.050000000000000044]","pink","pink",0.3,"within",1,466.242638343829
2,"No",47,"[1, -0.475, 0.050000000000000044]","[1, -0.625, -0.25]","pink","pink",0.3,"within",1,416.591912595322
2,"No",48,"[1, -1.0, -1.0]","[1, -0.32500000000000007, 0.34999999999999987]","red","pink",1.35,"across",1,419.418539968319
2,"No",49,"[1, -0.925, -0.85]","[1, -0.4, 0.19999999999999996]","red","pink",1.05,"across",1,401.451905258
2,"No",50,"[1, -0.55, -0.10000000000000009]","[1, -0.925, -0.85]","pink","red",0.75,"across",1,459.9099256302
2,"No",51,"[1, -0.475, 0.050000000000000044]","[1, -0.32500000000000007, 0.34999999999999987]","pink","pink",0.3,"within",1,610.711624482065
2,"No",52,"[1, -0.4, 0.19999999999999996]","[1, -0.32500000000000007, 0.34999999999999987]","pink","pink",0.15,"within",1,412.569562337012
2,"No",53,"[1, -0.775, -0.55]","[1, -0.55, -0.10000000000000009]","pink","pink",0.45,"within",1,453.644953435287
2,"No",54,"[1, -1.0, -1.0]","[1, -0.775, -0.55]","red","pink",0.45,"across",1,425.747147208313
2,"No",55,"[1, -0.85, -0.7]","[1, -0.4, 0.19999999999999996]","red","pink",0.9,"across",1,446.745683599147
2,"No",56,"[1, -1.0, -1.0]","[1, -0.625, -0.25]","red","pink",0.75,"across",1,401.424193216371
2,"No",57,"[1, -0.775, -0.55]","[1, -0.475, 0.050000000000000044]","pink","pink",0.6,"within",1,376.944204399479
2,"No",58,"[1, -0.7, -0.4]","[1, -0.625, -0.25]","pink","pink",0.15,"within",1,892.35517384077
2,"No",59,"[1, -0.925, -0.85]","[1, -0.85, -0.7]","red","red",0.15,"within",1,754.075208402355
2,"No",60,"[1, -1.0, -1.0]","[1, -0.85, -0.7]","red","red",0.3,"within",1,468.95020660304
2,"No",61,"[1, -0.7, -0.4]","[1, -0.4, 0.19999999999999996]","pink","pink",0.6,"within",1,471.183591187582
2,"No",62,"[1, -0.4, 0.19999999999999996]","[1, -0.475, 0.050000000000000044]","pink","pink",0.15,"within",1,574.374991017976
2,"No",63,"[1, -0.4, 0.19999999999999996]","[1, -0.775, -0.55]","pink","pink",0.75,"within",1,428.897081626928
2,"No",64,"[1, -0.55, -0.10000000000000009]","[1, -0.85, -0.7]","pink","red",0.6,"across",1,430.405847844668
2,"No",65,"[1, -0.475, 0.050000000000000044]","[1, -0.775, -0.55]","pink","pink",0.6,"within",1,412.941108850646
2,"No",66,"[1, -0.4, 0.19999999999999996]","[1, -0.925, -0.85]","pink","red",1.05,"across",1,435.962623654632
2,"No",67,"[1, -0.475, 0.050000000000000044]","[1, -0.55, -0.10000000000000009]","pink","pink",0.15,"within",1,568.134651737637
2,"No",68,"[1, -0.4, 0.19999999999999996]","[1, -0.7, -0.4]","pink","pink",0.6,"within",1,421.264982462162
2,"No",69,"[1, -1.0, -1.0]","[1, -0.55, -0.10000000000000009]","red","pink",0.9,"across",1,414.697230648017
2,"No",70,"[1, -0.7, -0.4]","[1, -0.925, -0.85]","pink","red",0.45,"across",1,429.383581751608
2,"No",71,"[1, -0.85, -0.7]","[1, -0.775, -0.55]","red","pink",0.15,"across",1,531.499344157055
2,"No",72,"[1, -0.55, -0.10000000000000009]","[1, -0.7, -0.4]","pink","pink",0.3,"within",1,453.309329925105
2,"No",73,"[1, -0.475, 0.050000000000000044]","[1, -1.0, -1.0]","pink","red",1.05,"across",1,426.980845848448
2,"No",74,"[1, -0.4, 0.19999999999999996]","[1, -0.85, -0.7]","pink","red",0.9,"across",1,398.510324273957
2,"No",75,"[1, -0.7, -0.4]","[1, -0.32500000000000007, 0.34999999999999987]","pink","pink",0.75,"within",1,373.519202388707
2,"No",76,"[1, -0.625, -0.25]","[1, -0.775, -0.55]","pink","pink",0.3,"within",1,382.959768277942
2,"No",77,"[1, -0.32500000000000007, 0.34999999999999987]","[1, -0.7, -0.4]","pink","pink",0.75,"within",1,435.0204145303
2,"No",78,"[1, -0.7, -0.4]","[1, -0.475, 0.050000000000000044]","pink","pink",0.45,"within",1,423.816542228451
2,"No",79,"[1, -0.925, -0.85]","[1, -1.0, -1.0]","red","red",0.15,"within",1,1849.78025384771
2,"No",80,"[1, -1.0, -1.0]","[1, -0.475, 0.050000000000000044]","red","pink",1.05,"across",1,499.946628682665
2,"No",81,"[1, -0.925, -0.85]","[1, -0.775, -0.55]","red","pink",0.3,"across",1,493.957750441041
2,"No",82,"[1, -0.775, -0.55]","[1, -0.7, -0.4]","pink","pink",0.15,"within",1,396.524295254494
2,"No",83,"[1, -0.475, 0.050000000000000044]","[1, -0.7, -0.4]","pink","pink",0.45,"within",1,504.534509687801
2,"No",84,"[1, -0.7, -0.4]","[1, -0.55, -0.10000000000000009]","pink","pink",0.3,"within",1,431.351136096055
2,"No",85,"[1, -0.625, -0.25]","[1, -0.85, -0.7]","pink","red",0.45,"across",1,456.88418217469
2,"No",86,"[1, -0.625, -0.25]","[1, -0.925, -0.85]","pink","red",0.6,"across",1,409.615664888406
2,"No",87,"[1, -0.775, -0.55]","[1, -0.4, 0.19999999999999996]","pink","pink",0.75,"within",1,455.031581455842
2,"No",88,"[1, -0.85, -0.7]","[1, -0.55, -0.10000000000000009]","red","pink",0.6,"across",1,427.18201468233
2,"No",89,"[1, -0.475, 0.050000000000000044]","[1, -0.925, -0.85]","pink","red",0.9,"across",1,429.75718100206
2,"No",90,"[1, -0.7, -0.4]","[1, -1.0, -1.0]","pink","red",0.6,"across",1,387.402930908138
2,"No",91,"[1, -0.925, -0.85]","[1, -0.475, 0.050000000000000044]","red","pink",0.9,"across",1,416.369189959369
2,"No",92,"[1, -0.55, -0.10000000000000009]","[1, -0.4, 0.19999999999999996]","pink","pink",0.3,"within",1,438.339700267534
2,"No",93,"[1, -1.0, -1.0]","[1, -0.775, -0.55]","red","pink",0.45,"across",1,579.18867378612
2,"No",94,"[1, -0.7, -0.4]","[1, -0.625, -0.25]","pink","pink",0.15,"within",1,768.33972078748
2,"No",95,"[1, -0.55, -0.10000000000000009]","[1, -0.7, -0.4]","pink","pink",0.3,"within",1,685.766073482228
2,"No",96,"[1, -0.55, -0.10000000000000009]","[1, -0.475, 0.050000000000000044]","pink","pink",0.15,"within",1,509.163445574814
2,"No",97,"[1, -1.0, -1.0]","[1, -0.32500000000000007, 0.34999999999999987]","red","pink",1.35,"across",1,456.177012150874
2,"No",98,"[1, -0.4, 0.19999999999999996]","[1, -0.475, 0.050000000000000044]","pink","pink",0.15,"within",1,860.293378063943
2,"No",99,"[1, -0.775, -0.55]","[1, -0.4, 0.19999999999999996]","pink","pink",0.75,"within",1,443.353525479324
2,"No",100,"[1, -0.32500000000000007, 0.34999999999999987]","[1, -0.625, -0.25]","pink","pink",0.6,"within",1,424.731039325707
2,"No",101,"[1, -0.925, -0.85]","[1, -0.625, -0.25]","red","pink",0.6,"across",1,429.596040674369
2,"No",102,"[1, -0.625, -0.25]","[1, -0.775, -0.55]","pink","pink",0.3,"within",1,424.29996325518
2,"No",103,"[1, -0.475, 0.050000000000000044]","[1, -0.85, -0.7]","pink","red",0.75,"across",1,394.287831542897
2,"No",104,"[1, -0.32500000000000007, 0.34999999999999987]","[1, -0.4, 0.19999999999999996]","pink","pink",0.15,"within",1,701.524982912815
2,"No",105,"[1, -1.0, -1.0]","[1, -0.85, -0.7]","red","red",0.3,"within",1,660.646655160235
2,"No",106,"[1, -0.4, 0.19999999999999996]","[1, -0.55, -0.10000000000000009]","pink","pink",0.3,"within",1,488.835129828658
2,"No",107,"[1, -0.475, 0.050000000000000044]","[1, -0.925, -0.85]","pink","red",0.9,"across",1,453.208745500888
2,"No",108,"[1, -0.32500000000000007, 0.34999999999999987]","[1, -1.0, -1.0]","pink","red",1.35,"across",1,419.623814275838
2,"No",109,"[1, -1.0, -1.0]","[1, -0.55, -0.10000000000000009]","red","pink",0.9,"across",1,483.657085133018
2,"No",110,"[1, -0.775, -0.55]","[1, -0.55, -0.10000000000000009]","pink","pink",0.45,"within",1,494.926645216765
2,"No",111,"[1, -0.475, 0.050000000000000044]","[1, -1.0, -1.0]","pink","red",1.05,"across",1,431.571805980639
2,"No",112,"[1, -0.32500000000000007, 0.34999999999999987]","[1, -0.55, -0.10000000000000009]","pink","pink",0.45,"within",1,481.993336783489
2,"No",113,"[1, -0.625, -0.25]","[1, -1.0, -1.0]","pink","red",0.75,"across",1,398.502113312134
2,"No",114,"[1, -1.0, -1.0]","[1, -0.7, -0.4]","red","pink",0.6,"across",1,426.140247524017
2,"No",115,"[1, -0.4, 0.19999999999999996]","[1, -1.0, -1.0]","pink","red",1.2,"across",1,375.017704907805
2,"No",116,"[1, -0.925, -0.85]","[1, -0.7, -0.4]","red","pink",0.45,"across",1,410.303333861521
2,"No",117,"[1, -0.55, -0.10000000000000009]","[1, -0.775, -0.55]","pink","pink",0.45,"within",1,485.320833497099
2,"No",118,"[1, -0.625, -0.25]","[1, -0.85, -0.7]","pink","red",0.45,"across",1,371.834926612792
2,"No",119,"[1, -0.925, -0.85]","[1, -0.85, -0.7]","red","red",0.15,"within",1,640.52156098478
2,"No",120,"[1, -0.475, 0.050000000000000044]","[1, -0.625, -0.25]","pink","pink",0.3,"within",1,532.214725157246
2,"No",121,"[1, -0.625, -0.25]","[1, -0.475, 0.050000000000000044]","pink","pink",0.3,"within",1,539.770872812369
2,"No",122,"[1, -0.925, -0.85]","[1, -0.32500000000000007, 0.34999999999999987]","red","pink",1.2,"across",1,426.580560932052
2,"No",123,"[1, -0.85, -0.7]","[1, -0.775, -0.55]","red","pink",0.15,"across",1,487.140590324998
2,"No",124,"[1, -0.475, 0.050000000000000044]","[1, -0.775, -0.55]","pink","pink",0.6,"within",1,406.023364324938
2,"No",125,"[1, -0.4, 0.19999999999999996]","[1, -0.32500000000000007, 0.34999999999999987]","pink","pink",0.15,"within",1,729.418683651602
2,"No",126,"[1, -0.85, -0.7]","[1, -0.55, -0.10000000000000009]","red","pink",0.6,"across",1,876.67324229551
2,"No",127,"[1, -0.4, 0.19999999999999996]","[1, -0.625, -0.25]","pink","pink",0.45,"within",1,420.941675401991
2,"No",128,"[1, -0.85, -0.7]","[1, -0.4, 0.19999999999999996]","red","pink",0.9,"across",1,427.043454517843
2,"No",129,"[1, -0.55, -0.10000000000000009]","[1, -0.32500000000000007, 0.34999999999999987]","pink","pink",0.45,"within",1,470.845914940583
2,"No",130,"[1, -0.775, -0.55]","[1, -1.0, -1.0]","pink","red",0.45,"across",1,521.831950129126
2,"No",131,"[1, -0.55, -0.10000000000000009]","[1, -0.925, -0.85]","pink","red",0.75,"across",1,427.247702464228
2,"No",132,"[1, -0.32500000000000007, 0.34999999999999987]","[1, -0.7, -0.4]","pink","pink",0.75,"within",1,417.583387563354
2,"No",133,"[1, -0.32500000000000007, 0.34999999999999987]","[1, -0.925, -0.85]","pink","red",1.2,"across",1,466.806116353837
2,"No",134,"[1, -0.475, 0.050000000000000044]","[1, -0.4, 0.19999999999999996]","pink","pink",0.15,"within",1,647.074943597545
2,"No",135,"[1, -0.7, -0.4]","[1, -0.32500000000000007, 0.34999999999999987]","pink","pink",0.75,"within",1,448.956488005933
2,"No",136,"[1, -0.7, -0.4]","[1, -0.925, -0.85]","pink","red",0.45,"across",1,567.190389876487
2,"No",137,"[1, -0.625, -0.25]","[1, -0.925, -0.85]","pink","red",0.6,"across",1,477.671286018449
2,"No",138,"[1, -0.625, -0.25]","[1, -0.7, -0.4]","pink","pink",0.15,"within",1,748.169466271065
2,"No",139,"[1, -0.55, -0.10000000000000009]","[1, -1.0, -1.0]","pink","red",0.9,"across",1,491.168072447181
2,"No",140,"[1, -0.775, -0.55]","[1, -0.7, -0.4]","pink","pink",0.15,"within",1,586.704792949604
2,"No",141,"[1, -0.85, -0.7]","[1, -1.0, -1.0]","red","red",0.3,"within",1,665.620451894938
2,"No",142,"[1, -0.32500000000000007, 0.34999999999999987]","[1, -0.475, 0.050000000000000044]","pink","pink",0.3,"within",1,542.751455912367
2,"No",143,"[1, -0.775, -0.55]","[1, -0.32500000000000007, 0.34999999999999987]","pink","pink",0.9,"within",1,467.76269467955
2,"No",144,"[1, -0.7, -0.4]","[1, -0.775, -0.55]","pink","pink",0.15,"within",1,635.305540563422
2,"No",145,"[1, -0.55, -0.10000000000000009]","[1, -0.85, -0.7]","pink","red",0.6,"across",1,439.935708083794
2,"No",146,"[1, -0.775, -0.55]","[1, -0.85, -0.7]","pink","red",0.15,"across",1,1205.4180103587
2,"No",147,"[1, -0.7, -0.4]","[1, -0.475, 0.050000000000000044]","pink","pink",0.45,"within",1,599.074623372871
2,"No",148,"[1, -1.0, -1.0]","[1, -0.925, -0.85]","red","red",0.15,"within",1,1211.0805024422
2,"No",149,"[1, -0.625, -0.25]","[1, -0.55, -0.10000000000000009]","pink","pink",0.15,"within",1,622.311676197569
2,"No",150,"[1, -0.775, -0.55]","[1, -0.475, 0.050000000000000044]","pink","pink",0.6,"within",1,487.209357219399
2,"No",151,"[1, -0.85, -0.7]","[1, -0.32500000000000007, 0.34999999999999987]","red","pink",1.05,"across",1,419.871169826365
2,"No",152,"[1, -0.925, -0.85]","[1, -0.4, 0.19999999999999996]","red","pink",1.05,"across",1,415.073909010971
2,"No",153,"[1, -0.85, -0.7]","[1, -0.925, -0.85]","red","red",0.15,"within",1,878.422179477639
2,"No",154,"[1, -0.925, -0.85]","[1, -0.55, -0.10000000000000009]","red","pink",0.75,"across",1,429.912163119297
2,"No",155,"[1, -0.85, -0.7]","[1, -0.475, 0.050000000000000044]","red","pink",0.75,"across",1,431.474300683476
2,"No",156,"[1, -0.475, 0.050000000000000044]","[1, -0.55, -0.10000000000000009]","pink","pink",0.15,"within",1,759.575533767929
2,"No",157,"[1, -1.0, -1.0]","[1, -0.625, -0.25]","red","pink",0.75,"across",1,626.045616052579
2,"No",158,"[1, -0.925, -0.85]","[1, -1.0, -1.0]","red","red",0.15,"within",1,989.276469612378
2,"No",159,"[1, -0.775, -0.55]","[1, -0.625, -0.25]","pink","pink",0.3,"within",1,449.201790819643
2,"No",160,"[1, -0.475, 0.050000000000000044]","[1, -0.32500000000000007, 0.34999999999999987]","pink","pink",0.3,"within",1,568.79358230799
2,"No",161,"[1, -0.7, -0.4]","[1, -0.85, -0.7]","pink","red",0.3,"across",1,598.232998658204
2,"No",162,"[1, -0.85, -0.7]","[1, -0.7, -0.4]","red","pink",0.3,"across",1,510.099496459588
2,"No",163,"[1, -0.475, 0.050000000000000044]","[1, -0.7, -0.4]","pink","pink",0.45,"within",1,557.150422973791
2,"No",164,"[1, -0.925, -0.85]","[1, -0.775, -0.55]","red","pink",0.3,"across",1,619.268484442728
2,"No",165,"[1, -0.7, -0.4]","[1, -0.55, -0.10000000000000009]","pink","pink",0.3,"within",1,534.939741715789
2,"No",166,"[1, -0.4, 0.19999999999999996]","[1, -0.85, -0.7]","pink","red",0.9,"across",1,438.217562041245
2,"No",167,"[1, -0.7, -0.4]","[1, -0.4, 0.19999999999999996]","pink","pink",0.6,"within",1,447.78745075746
2,"No",168,"[1, -0.775, -0.55]","[1, -0.925, -0.85]","pink","red",0.3,"across",1,496.169581223512
2,"No",169,"[1, -0.4, 0.19999999999999996]","[1, -0.925, -0.85]","pink","red",1.05,"across",1,409.070661582518
2,"No",170,"[1, -0.4, 0.19999999999999996]","[1, -0.775, -0.55]","pink","pink",0.75,"within",1,392.746221419657
2,"No",171,"[1, -1.0, -1.0]","[1, -0.475, 0.050000000000000044]","red","pink",1.05,"across",1,429.508799075847
2,"No",172,"[1, -1.0, -1.0]","[1, -0.4, 0.19999999999999996]","red","pink",1.2,"across",1,425.601402443135
2,"No",173,"[1, -0.85, -0.7]","[1, -0.625, -0.25]","red","pink",0.45,"across",1,466.866672286415
2,"No",174,"[1, -0.7, -0.4]","[1, -1.0, -1.0]","pink","red",0.6,"across",1,596.977746201446
2,"No",175,"[1, -0.625, -0.25]","[1, -0.32500000000000007, 0.34999999999999987]","pink","pink",0.6,"within",1,572.984257523785
2,"No",176,"[1, -0.32500000000000007, 0.34999999999999987]","[1, -0.775, -0.55]","pink","pink",0.9,"within",1,639.938581924071
2,"No",177,"[1, -0.4, 0.19999999999999996]","[1, -0.7, -0.4]","pink","pink",0.6,"within",1,510.670159055735
2,"No",178,"[1, -0.55, -0.10000000000000009]","[1, -0.625, -0.25]","pink","pink",0.15,"within",1,744.654143563821
2,"No",179,"[1, -0.625, -0.25]","[1, -0.4, 0.19999999999999996]","pink","pink",0.45,"within",1,498.786828786251
2,"No",180,"[1, -0.32500000000000007, 0.34999999999999987]","[1, -0.85, -0.7]","pink","red",1.05,"across",1,465.42872567079
3,"Yes",1,"[1, -0.475, 0.050000000000000044]","[1, -1.0, -1.0]","pink","red",1.05,"across",1,742.291104979813
3,"Yes",2,"[1, -0.925, -0.85]","[1, -0.85, -0.7]","red","red",0.15,"within",1,980.397725012153
3,"Yes",3,"[1, -0.625, -0.25]","[1, -0.85, -0.7]","pink","red",0.45,"across",1,731.047284964006
3,"Yes",4,"[1, -0.925, -0.85]","[1, -0.55, -0.10000000000000009]","red","pink",0.75,"across",1,592.316007008776
3,"Yes",5,"[1, -0.55, -0.10000000000000009]","[1, -0.7, -0.4]","pink","red",0.3,"across",1,824.318761995528
3,"Yes",6,"[1, -0.625, -0.25]","[1, -0.4, 0.19999999999999996]","pink","pink",0.45,"within",1,572.677207994275
3,"Yes",7,"[1, -0.7, -0.4]","[1, -0.625, -0.25]","red","pink",0.15,"across",1,562.204799964093
3,"Yes",8,"[1, -0.925, -0.85]","[1, -0.32500000000000007, 0.34999999999999987]","red","pink",1.2,"across",1,517.52795802895
3,"Yes",9,"[1, -0.55, -0.10000000000000009]","[1, -0.32500000000000007, 0.34999999999999987]","pink","pink",0.45,"within",1,604.079812008422
3,"Yes",11,"[1, -0.4, 0.19999999999999996]","[1, -0.775, -0.55]","pink","red",0.75,"across",1,463.84941303404
3,"Yes",12,"[1, -0.925, -0.85]","[1, -0.775, -0.55]","red","red",0.3,"within",1,481.843252957333
3,"Yes",13,"[1, -0.55, -0.10000000000000009]","[1, -1.0, -1.0]","pink","red",0.9,"across",1,473.801998014096
3,"Yes",14,"[1, -1.0, -1.0]","[1, -0.475, 0.050000000000000044]","red","pink",1.05,"across",1,590.969691984355
3,"Yes",15,"[1, -0.85, -0.7]","[1, -0.32500000000000007, 0.34999999999999987]","red","pink",1.05,"across",1,533.978655992541
3,"Yes",16,"[1, -1.0, -1.0]","[1, -0.7, -0.4]","red","red",0.6,"within",1,833.83421698818
3,"Yes",17,"[1, -0.4, 0.19999999999999996]","[1, -0.7, -0.4]","pink","red",0.6,"across",1,566.13718700828
3,"Yes",18,"[1, -0.4, 0.19999999999999996]","[1, -0.85, -0.7]","pink","red",0.9,"across",1,526.979810034391
3,"Yes",19,"[1, -0.625, -0.25]","[1, -0.475, 0.050000000000000044]","pink","pink",0.3,"within",1,683.87295701541
3,"Yes",20,"[1, -0.4, 0.19999999999999996]","[1, -1.0, -1.0]","pink","red",1.2,"across",1,988.01899200771
3,"Yes",21,"[1, -0.775, -0.55]","[1, -0.625, -0.25]","red","pink",0.3,"across",1,591.053757991176
3,"Yes",22,"[1, -1.0, -1.0]","[1, -0.625, -0.25]","red","pink",0.75,"across",1,470.860944013111
3,"Yes",23,"[1, -0.775, -0.55]","[1, -0.32500000000000007, 0.34999999999999987]","red","pink",0.9,"across",1,452.804198022932
3,"Yes",24,"[1, -0.625, -0.25]","[1, -0.925, -0.85]","pink","red",0.6,"across",1,448.440730047878
3,"Yes",25,"[1, -0.55, -0.10000000000000009]","[1, -0.625, -0.25]","pink","pink",0.15,"within",1,954.860918980557
3,"Yes",26,"[1, -0.4, 0.19999999999999996]","[1, -0.475, 0.050000000000000044]","pink","pink",0.15,"within",1,454.58783901995
3,"Yes",27,"[1, -0.925, -0.85]","[1, -0.625, -0.25]","red","pink",0.6,"across",1,561.005902010947
3,"Yes",28,"[1, -0.475, 0.050000000000000044]","[1, -0.85, -0.7]","pink","red",0.75,"across",1,529.29887996288
3,"Yes",29,"[1, -0.85, -0.7]","[1, -0.775, -0.55]","red","red",0.15,"within",1,577.95437599998
3,"Yes",30,"[1, -0.4, 0.19999999999999996]","[1, -0.32500000000000007, 0.34999999999999987]","pink","pink",0.15,"within",1,633.755915041547
3,"Yes",32,"[1, -0.475, 0.050000000000000044]","[1, -0.925, -0.85]","pink","red",0.9,"across",1,478.119916981086
3,"Yes",33,"[1, -0.85, -0.7]","[1, -0.4, 0.19999999999999996]","red","pink",0.9,"across",1,480.897811998148
3,"Yes",34,"[1, -0.775, -0.55]","[1, -0.475, 0.050000000000000044]","red","pink",0.6,"across",1,464.153787004761
3,"Yes",35,"[1, -0.7, -0.4]","[1, -0.475, 0.050000000000000044]","red","pink",0.45,"across",1,718.586137983948
3,"Yes",36,"[1, -0.55, -0.10000000000000009]","[1, -0.925, -0.85]","pink","red",0.75,"across",1,467.323125980329
3,"Yes",37,"[1, -0.475, 0.050000000000000044]","[1, -0.625, -0.25]","pink","pink",0.3,"within",1,497.282436001115
3,"Yes",38,"[1, -0.7, -0.4]","[1, -0.32500000000000007, 0.34999999999999987]","red","pink",0.75,"across",1,436.476523056626
3,"Yes",39,"[1, -0.625, -0.25]","[1, -1.0, -1.0]","pink","red",0.75,"across",1,533.435228979215
3,"Yes",40,"[1, -0.55, -0.10000000000000009]","[1, -0.475, 0.050000000000000044]","pink","pink",0.15,"within",1,511.004259984475
3,"Yes",41,"[1, -0.85, -0.7]","[1, -1.0, -1.0]","red","red",0.3,"within",1,458.147279976401
3,"Yes",43,"[1, -1.0, -1.0]","[1, -0.55, -0.10000000000000009]","red","pink",0.9,"across",1,679.884815996047
3,"Yes",44,"[1, -0.925, -0.85]","[1, -0.7, -0.4]","red","red",0.45,"within",1,726.039974018931
3,"Yes",45,"[1, -0.32500000000000007, 0.34999999999999987]","[1, -0.4, 0.19999999999999996]","pink","pink",0.15,"within",1,1067.23630899796
3,"Yes",46,"[1, -0.625, -0.25]","[1, -0.32500000000000007, 0.34999999999999987]","pink","pink",0.6,"within",1,533.785703009926
3,"Yes",47,"[1, -0.475, 0.050000000000000044]","[1, -0.775, -0.55]","pink","red",0.6,"across",1,587.289877003059
3,"Yes",48,"[1, -0.775, -0.55]","[1, -0.85, -0.7]","red","red",0.15,"within",1,692.824427969754
3,"Yes",49,"[1, -1.0, -1.0]","[1, -0.775, -0.55]","red","red",0.45,"within",1,899.74040503148
3,"Yes",50,"[1, -0.32500000000000007, 0.34999999999999987]","[1, -1.0, -1.0]","pink","red",1.35,"across",1,573.892248037737
3,"Yes",51,"[1, -0.475, 0.050000000000000044]","[1, -0.32500000000000007, 0.34999999999999987]","pink","pink",0.3,"within",1,764.319251989946
3,"Yes",52,"[1, -0.7, -0.4]","[1, -0.925, -0.85]","red","red",0.45,"within",1,533.241926983465
3,"Yes",53,"[1, -0.4, 0.19999999999999996]","[1, -0.925, -0.85]","pink","red",1.05,"across",1,602.269380993675
3,"Yes",54,"[1, -0.775, -0.55]","[1, -0.55, -0.10000000000000009]","red","pink",0.45,"across",1,1045.0983439805
3,"Yes",55,"[1, -1.0, -1.0]","[1, -0.4, 0.19999999999999996]","red","pink",1.2,"across",1,509.625427017454
3,"Yes",56,"[1, -0.475, 0.050000000000000044]","[1, -0.7, -0.4]","pink","red",0.45,"across",1,632.628666993696
3,"Yes",57,"[1, -0.55, -0.10000000000000009]","[1, -0.4, 0.19999999999999996]","pink","pink",0.3,"within",1,845.098219986539
3,"Yes",58,"[1, -0.475, 0.050000000000000044]","[1, -0.55, -0.10000000000000009]","pink","pink",0.15,"within",1,1028.25187100098
3,"Yes",59,"[1, -0.775, -0.55]","[1, -1.0, -1.0]","red","red",0.45,"within",1,599.294878018554
3,"Yes",60,"[1, -0.85, -0.7]","[1, -0.55, -0.10000000000000009]","red","pink",0.6,"across",1,482.915251981467
3,"Yes",61,"[1, -0.32500000000000007, 0.34999999999999987]","[1, -0.625, -0.25]","pink","pink",0.6,"within",1,495.041695015971
3,"Yes",62,"[1, -0.55, -0.10000000000000009]","[1, -0.775, -0.55]","pink","red",0.45,"across",1,444.899510999676
3,"Yes",63,"[1, -0.85, -0.7]","[1, -0.7, -0.4]","red","red",0.3,"within",1,545.383924036287
3,"Yes",64,"[1, -0.4, 0.19999999999999996]","[1, -0.55, -0.10000000000000009]","pink","pink",0.3,"within",1,709.393127996009
3,"Yes",66,"[1, -0.85, -0.7]","[1, -0.475, 0.050000000000000044]","red","pink",0.75,"across",1,452.132888021879
3,"Yes",67,"[1, -0.925, -0.85]","[1, -0.475, 0.050000000000000044]","red","pink",0.9,"across",1,450.953405001201
3,"Yes",68,"[1, -1.0, -1.0]","[1, -0.32500000000000007, 0.34999999999999987]","red","pink",1.35,"across",1,439.795468992088
3,"Yes",69,"[1, -0.32500000000000007, 0.34999999999999987]","[1, -0.85, -0.7]","pink","red",1.05,"across",1,472.915173973888
3,"Yes",70,"[1, -0.7, -0.4]","[1, -0.85, -0.7]","red","red",0.3,"within",1,486.985497002024
3,"Yes",71,"[1, -0.475, 0.050000000000000044]","[1, -0.4, 0.19999999999999996]","pink","pink",0.15,"within",1,437.118453963194
3,"Yes",72,"[1, -0.32500000000000007, 0.34999999999999987]","[1, -0.55, -0.10000000000000009]","pink","pink",0.45,"within",1,480.24548694957
3,"Yes",73,"[1, -0.775, -0.55]","[1, -0.7, -0.4]","red","red",0.15,"within",1,583.654134999961
3,"Yes",74,"[1, -0.7, -0.4]","[1, -0.55, -0.10000000000000009]","red","pink",0.3,"across",1,712.316858000122
3,"Yes",75,"[1, -1.0, -1.0]","[1, -0.85, -0.7]","red","red",0.3,"within",1,492.169995966833
3,"Yes",76,"[1, -0.32500000000000007, 0.34999999999999987]","[1, -0.475, 0.050000000000000044]","pink","pink",0.3,"within",1,503.443708992563
3,"Yes",77,"[1, -0.625, -0.25]","[1, -0.55, -0.10000000000000009]","pink","pink",0.15,"within",1,526.505184010603
3,"Yes",78,"[1, -0.32500000000000007, 0.34999999999999987]","[1, -0.775, -0.55]","pink","red",0.9,"across",1,449.305974005256
3,"Yes",79,"[1, -0.925, -0.85]","[1, -0.4, 0.19999999999999996]","red","pink",1.05,"across",1,384.468605974689
3,"Yes",80,"[1, -0.775, -0.55]","[1, -0.925, -0.85]","red","red",0.3,"within",1,458.026194013655
3,"Yes",81,"[1, -0.32500000000000007, 0.34999999999999987]","[1, -0.925, -0.85]","pink","red",1.2,"across",1,498.308676993474
3,"Yes",82,"[1, -0.4, 0.19999999999999996]","[1, -0.625, -0.25]","pink","pink",0.45,"within",1,410.777106997557
3,"Yes",83,"[1, -0.775, -0.55]","[1, -0.4, 0.19999999999999996]","red","pink",0.75,"across",1,433.639978000429
3,"Yes",84,"[1, -0.32500000000000007, 0.34999999999999987]","[1, -0.7, -0.4]","pink","red",0.75,"across",1,412.862700002734
3,"Yes",85,"[1, -1.0, -1.0]","[1, -0.925, -0.85]","red","red",0.15,"within",1,1008.09534400469
3,"Yes",86,"[1, -0.85, -0.7]","[1, -0.625, -0.25]","red","pink",0.45,"across",1,745.148302987218
3,"Yes",87,"[1, -0.625, -0.25]","[1, -0.7, -0.4]","pink","red",0.15,"across",1,749.012058018707
3,"Yes",88,"[1, -0.7, -0.4]","[1, -1.0, -1.0]","red","red",0.6,"within",1,424.775958003011
3,"Yes",90,"[1, -0.625, -0.25]","[1, -0.775, -0.55]","pink","red",0.3,"across",1,514.722828986123
3,"Yes",91,"[1, -0.4, 0.19999999999999996]","[1, -1.0, -1.0]","pink","red",1.2,"across",1,419.529018981848
3,"Yes",92,"[1, -1.0, -1.0]","[1, -0.85, -0.7]","red","red",0.3,"within",1,569.918169989251
3,"Yes",93,"[1, -0.85, -0.7]","[1, -0.55, -0.10000000000000009]","red","pink",0.6,"across",1,456.710384984035
3,"Yes",94,"[1, -0.925, -0.85]","[1, -0.625, -0.25]","red","pink",0.6,"across",1,468.742881028447
3,"Yes",95,"[1, -0.775, -0.55]","[1, -0.32500000000000007, 0.34999999999999987]","red","pink",0.9,"across",1,539.960007008631
3,"Yes",96,"[1, -0.475, 0.050000000000000044]","[1, -0.85, -0.7]","pink","red",0.75,"across",1,475.004701002035
3,"Yes",98,"[1, -0.7, -0.4]","[1, -0.775, -0.55]","red","red",0.15,"within",1,402.859146997798
3,"Yes",99,"[1, -0.55, -0.10000000000000009]","[1, -0.85, -0.7]","pink","red",0.6,"across",1,479.707645950839
3,"Yes",100,"[1, -0.625, -0.25]","[1, -0.925, -0.85]","pink","red",0.6,"across",1,490.409229998477
3,"Yes",101,"[1, -0.775, -0.55]","[1, -0.925, -0.85]","red","red",0.3,"within",1,732.432387012523
3,"Yes",102,"[1, -0.85, -0.7]","[1, -0.4, 0.19999999999999996]","red","pink",0.9,"across",1,421.839168993756
3,"Yes",103,"[1, -0.475, 0.050000000000000044]","[1, -0.55, -0.10000000000000009]","pink","pink",0.15,"within",1,412.073996034451
3,"Yes",104,"[1, -0.4, 0.19999999999999996]","[1, -0.7, -0.4]","pink","red",0.6,"across",1,497.646979987621
3,"Yes",106,"[1, -1.0, -1.0]","[1, -0.55, -0.10000000000000009]","red","pink",0.9,"across",1,445.9986690199
3,"Yes",108,"[1, -0.475, 0.050000000000000044]","[1, -0.775, -0.55]","pink","red",0.6,"across",1,870.683405024465
3,"Yes",109,"[1, -0.4, 0.19999999999999996]","[1, -0.55, -0.10000000000000009]","pink","pink",0.3,"within",1,753.529477980919
3,"Yes",110,"[1, -0.32500000000000007, 0.34999999999999987]","[1, -0.4, 0.19999999999999996]","pink","pink",0.15,"within",1,1795.66762701143
3,"Yes",111,"[1, -0.925, -0.85]","[1, -0.7, -0.4]","red","red",0.45,"within",1,546.033537015319
3,"Yes",112,"[1, -0.925, -0.85]","[1, -0.32500000000000007, 0.34999999999999987]","red","pink",1.2,"across",1,467.444903042633
3,"Yes",113,"[1, -0.625, -0.25]","[1, -0.7, -0.4]","pink","red",0.15,"across",1,478.488787950482
3,"Yes",114,"[1, -0.775, -0.55]","[1, -0.7, -0.4]","red","red",0.15,"within",1,987.097339006141
3,"Yes",115,"[1, -0.55, -0.10000000000000009]","[1, -0.625, -0.25]","pink","pink",0.15,"within",1,533.499603974633
3,"Yes",116,"[1, -0.7, -0.4]","[1, -0.4, 0.19999999999999996]","red","pink",0.6,"across",1,428.442155010998
3,"Yes",118,"[1, -0.4, 0.19999999999999996]","[1, -0.925, -0.85]","pink","red",1.05,"across",1,473.361479991581
3,"Yes",119,"[1, -0.925, -0.85]","[1, -0.775, -0.55]","red","red",0.3,"within",1,1452.80924299732
3,"Yes",120,"[1, -0.625, -0.25]","[1, -0.85, -0.7]","pink","red",0.45,"across",1,593.046105001122
3,"Yes",121,"[1, -0.85, -0.7]","[1, -0.625, -0.25]","red","pink",0.45,"across",1,480.911878985353
3,"Yes",122,"[1, -0.4, 0.19999999999999996]","[1, -0.475, 0.050000000000000044]","pink","pink",0.15,"within",1,1209.94178002002
3,"Yes",123,"[1, -0.32500000000000007, 0.34999999999999987]","[1, -0.7, -0.4]","pink","red",0.75,"across",1,529.947114002425
3,"Yes",124,"[1, -1.0, -1.0]","[1, -0.4, 0.19999999999999996]","red","pink",1.2,"across",1,520.595673995558
3,"Yes",125,"[1, -0.55, -0.10000000000000009]","[1, -1.0, -1.0]","pink","red",0.9,"across",1,451.609162031673
3,"Yes",126,"[1, -0.775, -0.55]","[1, -0.625, -0.25]","red","pink",0.3,"across",1,460.163619951345
3,"Yes",127,"[1, -0.925, -0.85]","[1, -1.0, -1.0]","red","red",0.15,"within",1,981.028710026294
3,"Yes",128,"[1, -1.0, -1.0]","[1, -0.625, -0.25]","red","pink",0.75,"across",1,461.489441979211
3,"Yes",129,"[1, -0.625, -0.25]","[1, -0.4, 0.19999999999999996]","pink","pink",0.45,"within",1,455.474523012526
3,"Yes",130,"[1, -0.85, -0.7]","[1, -1.0, -1.0]","red","red",0.3,"within",1,862.465273006819
3,"Yes",131,"[1, -0.925, -0.85]","[1, -0.85, -0.7]","red","red",0.15,"within",1,464.083845028654
3,"Yes",132,"[1, -0.85, -0.7]","[1, -0.7, -0.4]","red","red",0.3,"within",1,504.834418999963
3,"Yes",133,"[1, -0.55, -0.10000000000000009]","[1, -0.4, 0.19999999999999996]","pink","pink",0.3,"within",1,858.197454013862
3,"Yes",134,"[1, -0.85, -0.7]","[1, -0.32500000000000007, 0.34999999999999987]","red","pink",1.05,"across",1,505.464473972097
3,"Yes",135,"[1, -0.475, 0.050000000000000044]","[1, -0.32500000000000007, 0.34999999999999987]","pink","pink",0.3,"within",1,925.212766975164
3,"Yes",136,"[1, -0.7, -0.4]","[1, -0.625, -0.25]","red","pink",0.15,"across",1,1009.40939999418
3,"Yes",137,"[1, -0.55, -0.10000000000000009]","[1, -0.7, -0.4]","pink","red",0.3,"across",1,602.843050961383
3,"Yes",138,"[1, -0.925, -0.85]","[1, -0.55, -0.10000000000000009]","red","pink",0.75,"across",1,527.269979007542
3,"Yes",139,"[1, -1.0, -1.0]","[1, -0.32500000000000007, 0.34999999999999987]","red","pink",1.35,"across",1,492.337753996253
3,"Yes",140,"[1, -0.7, -0.4]","[1, -0.925, -0.85]","red","red",0.45,"within",1,580.656940001063
3,"Yes",141,"[1, -0.625, -0.25]","[1, -0.475, 0.050000000000000044]","pink","pink",0.3,"within",1,1016.07867301209
3,"Yes",142,"[1, -0.32500000000000007, 0.34999999999999987]","[1, -0.85, -0.7]","pink","red",1.05,"across",1,531.837816000916
3,"Yes",143,"[1, -0.775, -0.55]","[1, -0.85, -0.7]","red","red",0.15,"within",1,432.220848975703
3,"Yes",144,"[1, -0.4, 0.19999999999999996]","[1, -0.625, -0.25]","pink","pink",0.45,"within",1,581.03940798901
3,"Yes",145,"[1, -0.475, 0.050000000000000044]","[1, -0.925, -0.85]","pink","red",0.9,"across",1,503.497731988318
3,"Yes",146,"[1, -0.475, 0.050000000000000044]","[1, -1.0, -1.0]","pink","red",1.05,"across",1,516.54984196648
3,"Yes",147,"[1, -0.85, -0.7]","[1, -0.775, -0.55]","red","red",0.15,"within",1,644.505107018631
3,"Yes",148,"[1, -0.55, -0.10000000000000009]","[1, -0.775, -0.55]","pink","red",0.45,"across",1,466.352681978606
3,"Yes",149,"[1, -0.55, -0.10000000000000009]","[1, -0.925, -0.85]","pink","red",0.75,"across",1,473.883341008332
3,"Yes",150,"[1, -0.32500000000000007, 0.34999999999999987]","[1, -0.625, -0.25]","pink","pink",0.6,"within",1,419.395064993296
3,"Yes",151,"[1, -0.775, -0.55]","[1, -0.475, 0.050000000000000044]","red","pink",0.6,"across",1,429.000897041988
3,"Yes",152,"[1, -0.32500000000000007, 0.34999999999999987]","[1, -0.475, 0.050000000000000044]","pink","pink",0.3,"within",1,502.531328005716
3,"Yes",153,"[1, -0.4, 0.19999999999999996]","[1, -0.775, -0.55]","pink","red",0.75,"across",1,445.703884994145
3,"Yes",154,"[1, -0.7, -0.4]","[1, -1.0, -1.0]","red","red",0.6,"within",1,644.976491981652
3,"Yes",155,"[1, -0.4, 0.19999999999999996]","[1, -0.85, -0.7]","pink","red",0.9,"across",1,463.134502002504
3,"Yes",156,"[1, -0.775, -0.55]","[1, -1.0, -1.0]","red","red",0.45,"within",1,683.201770996675
3,"Yes",157,"[1, -0.7, -0.4]","[1, -0.32500000000000007, 0.34999999999999987]","red","pink",0.75,"across",1,456.280116981361
3,"Yes",158,"[1, -0.55, -0.10000000000000009]","[1, -0.32500000000000007, 0.34999999999999987]","pink","pink",0.45,"within",1,642.054616997484
3,"Yes",159,"[1, -0.32500000000000007, 0.34999999999999987]","[1, -0.55, -0.10000000000000009]","pink","pink",0.45,"within",1,763.923851947766
3,"Yes",160,"[1, -1.0, -1.0]","[1, -0.475, 0.050000000000000044]","red","pink",1.05,"across",1,482.023288030177
3,"Yes",161,"[1, -0.32500000000000007, 0.34999999999999987]","[1, -1.0, -1.0]","pink","red",1.35,"across",1,500.683858001139
3,"Yes",162,"[1, -0.32500000000000007, 0.34999999999999987]","[1, -0.925, -0.85]","pink","red",1.2,"across",1,508.00623599207
3,"Yes",163,"[1, -0.625, -0.25]","[1, -0.775, -0.55]","pink","red",0.3,"across",1,759.53852001112
3,"Yes",164,"[1, -0.775, -0.55]","[1, -0.55, -0.10000000000000009]","red","pink",0.45,"across",1,579.273055016529
3,"Yes",165,"[1, -0.475, 0.050000000000000044]","[1, -0.7, -0.4]","pink","red",0.45,"across",1,552.376244973857
3,"Yes",166,"[1, -0.475, 0.050000000000000044]","[1, -0.625, -0.25]","pink","pink",0.3,"within",1,402.125667023938
3,"Yes",167,"[1, -0.925, -0.85]","[1, -0.475, 0.050000000000000044]","red","pink",0.9,"across",1,558.211421011947
3,"Yes",168,"[1, -0.775, -0.55]","[1, -0.4, 0.19999999999999996]","red","pink",0.75,"across",1,528.24947697809
3,"Yes",169,"[1, -0.85, -0.7]","[1, -0.475, 0.050000000000000044]","red","pink",0.75,"across",1,453.130637004506
3,"Yes",170,"[1, -0.7, -0.4]","[1, -0.55, -0.10000000000000009]","red","pink",0.3,"across",1,371.202716953121
3,"Yes",171,"[1, -0.32500000000000007, 0.34999999999999987]","[1, -0.775, -0.55]","pink","red",0.9,"across",1,409.831811033655
3,"Yes",172,"[1, -0.625, -0.25]","[1, -0.32500000000000007, 0.34999999999999987]","pink","pink",0.6,"within",1,442.960581975058
3,"Yes",173,"[1, -0.7, -0.4]","[1, -0.85, -0.7]","red","red",0.3,"within",1,572.995271009859
3,"Yes",174,"[1, -0.7, -0.4]","[1, -0.475, 0.050000000000000044]","red","pink",0.45,"across",1,489.48794399621
3,"Yes",175,"[1, -0.55, -0.10000000000000009]","[1, -0.475, 0.050000000000000044]","pink","pink",0.15,"within",1,523.936262005009
3,"Yes",177,"[1, -0.4, 0.19999999999999996]","[1, -0.32500000000000007, 0.34999999999999987]","pink","pink",0.15,"within",1,891.434570017736
3,"Yes",178,"[1, -0.925, -0.85]","[1, -0.4, 0.19999999999999996]","red","pink",1.05,"across",1,516.625387012027
3,"Yes",179,"[1, -0.625, -0.25]","[1, -1.0, -1.0]","pink","red",0.75,"across",1,523.693253984675
3,"Yes",180,"[1, -1.0, -1.0]","[1, -0.7, -0.4]","red","red",0.6,"within",1,533.513716014568
4,"Yes",2,"[1, -0.7, -0.4]","[1, -0.625, -0.25]","red","pink",0.15,"across",1,1399.87816708162
4,"Yes",3,"[1, -0.4, 0.19999999999999996]","[1, -0.7, -0.4]","pink","red",0.6,"across",1,642.292754957452
4,"Yes",4,"[1, -0.775, -0.55]","[1, -1.0, -1.0]","red","red",0.45,"within",1,690.007097087801
4,"Yes",5,"[1, -0.475, 0.050000000000000044]","[1, -0.775, -0.55]","pink","red",0.6,"across",1,631.746446946636
4,"Yes",6,"[1, -0.4, 0.19999999999999996]","[1, -0.55, -0.10000000000000009]","pink","pink",0.3,"within",1,921.646827133372
4,"Yes",7,"[1, -0.475, 0.050000000000000044]","[1, -1.0, -1.0]","pink","red",1.05,"across",1,521.837631007656
4,"Yes",8,"[1, -0.925, -0.85]","[1, -0.55, -0.10000000000000009]","red","pink",0.75,"across",1,510.389828821644
4,"Yes",9,"[1, -0.625, -0.25]","[1, -1.0, -1.0]","pink","red",0.75,"across",1,446.500875987113
4,"Yes",10,"[1, -0.55, -0.10000000000000009]","[1, -0.32500000000000007, 0.34999999999999987]","pink","pink",0.45,"within",1,463.000189978629
4,"Yes",11,"[1, -0.775, -0.55]","[1, -0.475, 0.050000000000000044]","red","pink",0.6,"across",1,493.387367110699
4,"Yes",12,"[1, -0.4, 0.19999999999999996]","[1, -1.0, -1.0]","pink","red",1.2,"across",1,368.181765079498
4,"Yes",13,"[1, -0.925, -0.85]","[1, -0.625, -0.25]","red","pink",0.6,"across",1,439.240282168612
4,"Yes",14,"[1, -0.4, 0.19999999999999996]","[1, -0.925, -0.85]","pink","red",1.05,"across",1,391.114665893838
4,"Yes",15,"[1, -0.7, -0.4]","[1, -0.85, -0.7]","red","red",0.3,"within",1,397.795369150117
4,"Yes",16,"[1, -0.4, 0.19999999999999996]","[1, -0.85, -0.7]","pink","red",0.9,"across",1,348.016565898433
4,"Yes",17,"[1, -0.7, -0.4]","[1, -0.32500000000000007, 0.34999999999999987]","red","pink",0.75,"across",1,575.299590826035
4,"Yes",18,"[1, -0.85, -0.7]","[1, -0.55, -0.10000000000000009]","red","pink",0.6,"across",1,359.046936966479
4,"Yes",19,"[1, -0.85, -0.7]","[1, -0.475, 0.050000000000000044]","red","pink",0.75,"across",1,408.517895964906
4,"Yes",20,"[1, -0.475, 0.050000000000000044]","[1, -0.625, -0.25]","pink","pink",0.3,"within",1,434.223798103631
4,"Yes",21,"[1, -0.4, 0.19999999999999996]","[1, -0.475, 0.050000000000000044]","pink","pink",0.15,"within",1,364.12269086577
4,"Yes",22,"[1, -0.475, 0.050000000000000044]","[1, -0.7, -0.4]","pink","red",0.45,"across",1,355.86005798541
4,"Yes",23,"[1, -0.925, -0.85]","[1, -0.85, -0.7]","red","red",0.15,"within",1,575.590396067128
4,"Yes",24,"[1, -0.775, -0.55]","[1, -0.32500000000000007, 0.34999999999999987]","red","pink",0.9,"across",1,373.282850021496
4,"Yes",25,"[1, -0.925, -0.85]","[1, -0.7, -0.4]","red","red",0.45,"within",1,420.716264052317
4,"Yes",26,"[1, -0.4, 0.19999999999999996]","[1, -0.775, -0.55]","pink","red",0.75,"across",1,459.173578070477
4,"Yes",27,"[1, -0.625, -0.25]","[1, -0.32500000000000007, 0.34999999999999987]","pink","pink",0.6,"within",1,421.533597167581
4,"Yes",28,"[1, -1.0, -1.0]","[1, -0.7, -0.4]","red","red",0.6,"within",1,487.927274778485
4,"Yes",29,"[1, -0.55, -0.10000000000000009]","[1, -1.0, -1.0]","pink","red",0.9,"across",1,375.595409888774
4,"Yes",30,"[1, -0.55, -0.10000000000000009]","[1, -0.925, -0.85]","pink","red",0.75,"across",1,361.072177067399
4,"Yes",31,"[1, -0.625, -0.25]","[1, -0.775, -0.55]","pink","red",0.3,"across",1,501.857216935605
4,"Yes",32,"[1, -0.32500000000000007, 0.34999999999999987]","[1, -0.55, -0.10000000000000009]","pink","pink",0.45,"within",1,347.671158844605
4,"Yes",33,"[1, -0.32500000000000007, 0.34999999999999987]","[1, -0.475, 0.050000000000000044]","pink","pink",0.3,"within",1,829.796650912613
4,"Yes",34,"[1, -0.32500000000000007, 0.34999999999999987]","[1, -0.775, -0.55]","pink","red",0.9,"across",1,363.335313042626
4,"Yes",35,"[1, -0.4, 0.19999999999999996]","[1, -0.32500000000000007, 0.34999999999999987]","pink","pink",0.15,"within",1,333.447901997715
4,"Yes",36,"[1, -0.55, -0.10000000000000009]","[1, -0.4, 0.19999999999999996]","pink","pink",0.3,"within",1,542.262102011591
4,"Yes",37,"[1, -0.85, -0.7]","[1, -0.7, -0.4]","red","red",0.3,"within",1,485.789083875716
4,"Yes",39,"[1, -0.775, -0.55]","[1, -0.625, -0.25]","red","pink",0.3,"across",1,472.65854710713
4,"Yes",40,"[1, -0.925, -0.85]","[1, -0.775, -0.55]","red","red",0.3,"within",1,367.009866982698
4,"Yes",41,"[1, -0.85, -0.7]","[1, -0.4, 0.19999999999999996]","red","pink",0.9,"across",1,436.921562068164
4,"Yes",42,"[1, -0.775, -0.55]","[1, -0.55, -0.10000000000000009]","red","pink",0.45,"across",1,348.72933011502
4,"Yes",43,"[1, -0.55, -0.10000000000000009]","[1, -0.625, -0.25]","pink","pink",0.15,"within",1,602.257215883583
4,"Yes",44,"[1, -0.625, -0.25]","[1, -0.7, -0.4]","pink","red",0.15,"across",1,616.961400955915
4,"Yes",45,"[1, -0.625, -0.25]","[1, -0.4, 0.19999999999999996]","pink","pink",0.45,"within",1,492.335641058162
4,"Yes",46,"[1, -0.85, -0.7]","[1, -0.925, -0.85]","red","red",0.15,"within",1,514.992209151387
4,"Yes",47,"[1, -0.32500000000000007, 0.34999999999999987]","[1, -0.7, -0.4]","pink","red",0.75,"across",1,446.652760030702
4,"Yes",48,"[1, -0.625, -0.25]","[1, -0.55, -0.10000000000000009]","pink","pink",0.15,"within",1,397.679673973471
4,"Yes",49,"[1, -0.7, -0.4]","[1, -1.0, -1.0]","red","red",0.6,"within",1,443.890966940671
4,"Yes",50,"[1, -1.0, -1.0]","[1, -0.4, 0.19999999999999996]","red","pink",1.2,"across",1,404.190964996815
4,"Yes",51,"[1, -0.7, -0.4]","[1, -0.4, 0.19999999999999996]","red","pink",0.6,"across",1,437.376399990171
4,"Yes",53,"[1, -0.55, -0.10000000000000009]","[1, -0.85, -0.7]","pink","red",0.6,"across",1,453.541399911046
4,"Yes",54,"[1, -0.625, -0.25]","[1, -0.925, -0.85]","pink","red",0.6,"across",1,442.644329043105
4,"Yes",55,"[1, -1.0, -1.0]","[1, -0.32500000000000007, 0.34999999999999987]","red","pink",1.35,"across",1,586.608167970553
4,"Yes",56,"[1, -0.85, -0.7]","[1, -1.0, -1.0]","red","red",0.3,"within",1,387.305174022913
4,"Yes",57,"[1, -0.32500000000000007, 0.34999999999999987]","[1, -1.0, -1.0]","pink","red",1.35,"across",1,367.04707192257
4,"Yes",58,"[1, -0.625, -0.25]","[1, -0.85, -0.7]","pink","red",0.45,"across",1,533.629202982411
4,"Yes",59,"[1, -1.0, -1.0]","[1, -0.775, -0.55]","red","red",0.45,"within",1,386.392056010664
4,"Yes",61,"[1, -1.0, -1.0]","[1, -0.55, -0.10000000000000009]","red","pink",0.9,"across",1,397.402136120945
4,"Yes",62,"[1, -0.7, -0.4]","[1, -0.475, 0.050000000000000044]","red","pink",0.45,"across",1,416.700029978529
4,"Yes",64,"[1, -0.4, 0.19999999999999996]","[1, -0.625, -0.25]","pink","pink",0.45,"within",1,443.749500904232
4,"Yes",65,"[1, -0.32500000000000007, 0.34999999999999987]","[1, -0.85, -0.7]","pink","red",1.05,"across",1,411.614242009819
4,"Yes",66,"[1, -0.85, -0.7]","[1, -0.775, -0.55]","red","red",0.15,"within",1,790.299651911482
4,"Yes",67,"[1, -1.0, -1.0]","[1, -0.625, -0.25]","red","pink",0.75,"across",1,411.995006958023
4,"Yes",68,"[1, -0.32500000000000007, 0.34999999999999987]","[1, -0.4, 0.19999999999999996]","pink","pink",0.15,"within",1,792.264341842383
4,"Yes",69,"[1, -1.0, -1.0]","[1, -0.475, 0.050000000000000044]","red","pink",1.05,"across",1,447.867421898991
4,"Yes",70,"[1, -0.925, -0.85]","[1, -0.4, 0.19999999999999996]","red","pink",1.05,"across",1,511.928830062971
4,"Yes",71,"[1, -0.7, -0.4]","[1, -0.925, -0.85]","red","red",0.45,"within",1,407.959284959361
4,"Yes",72,"[1, -0.775, -0.55]","[1, -0.85, -0.7]","red","red",0.15,"within",1,498.070248868316
4,"Yes",73,"[1, -0.625, -0.25]","[1, -0.475, 0.050000000000000044]","pink","pink",0.3,"within",1,755.266787018627
4,"Yes",74,"[1, -0.925, -0.85]","[1, -0.32500000000000007, 0.34999999999999987]","red","pink",1.2,"across",1,407.196791144088
4,"Yes",75,"[1, -1.0, -1.0]","[1, -0.85, -0.7]","red","red",0.3,"within",1,786.437701899558
4,"Yes",76,"[1, -0.32500000000000007, 0.34999999999999987]","[1, -0.925, -0.85]","pink","red",1.2,"across",1,408.021155046299
4,"Yes",77,"[1, -0.55, -0.10000000000000009]","[1, -0.775, -0.55]","pink","red",0.45,"across",1,424.194158986211
4,"Yes",78,"[1, -0.475, 0.050000000000000044]","[1, -0.32500000000000007, 0.34999999999999987]","pink","pink",0.3,"within",1,502.947755157948
4,"Yes",79,"[1, -0.475, 0.050000000000000044]","[1, -0.55, -0.10000000000000009]","pink","pink",0.15,"within",1,1345.81704903394
4,"Yes",80,"[1, -0.775, -0.55]","[1, -0.4, 0.19999999999999996]","red","pink",0.75,"across",1,448.436241131276
4,"Yes",81,"[1, -0.85, -0.7]","[1, -0.625, -0.25]","red","pink",0.45,"across",1,411.403701873496
4,"Yes",82,"[1, -0.7, -0.4]","[1, -0.55, -0.10000000000000009]","red","pink",0.3,"across",1,557.871836936101
4,"Yes",83,"[1, -0.55, -0.10000000000000009]","[1, -0.475, 0.050000000000000044]","pink","pink",0.15,"within",1,748.291227035224
4,"Yes",84,"[1, -0.775, -0.55]","[1, -0.925, -0.85]","red","red",0.3,"within",1,445.841282838956
4,"Yes",85,"[1, -0.475, 0.050000000000000044]","[1, -0.925, -0.85]","pink","red",0.9,"across",1,447.499569039792
4,"Yes",86,"[1, -0.55, -0.10000000000000009]","[1, -0.7, -0.4]","pink","red",0.3,"across",1,444.215321913362
4,"Yes",87,"[1, -0.32500000000000007, 0.34999999999999987]","[1, -0.625, -0.25]","pink","pink",0.6,"within",1,655.462811002508
4,"Yes",88,"[1, -0.475, 0.050000000000000044]","[1, -0.85, -0.7]","pink","red",0.75,"across",1,465.432134922594
4,"Yes",89,"[1, -0.925, -0.85]","[1, -0.475, 0.050000000000000044]","red","pink",0.9,"across",1,420.079326024279
4,"Yes",90,"[1, -0.85, -0.7]","[1, -0.32500000000000007, 0.34999999999999987]","red","pink",1.05,"across",1,461.522687925026
4,"Yes",91,"[1, -0.775, -0.55]","[1, -0.7, -0.4]","red","red",0.15,"within",1,635.224022902548
4,"Yes",92,"[1, -0.775, -0.55]","[1, -0.925, -0.85]","red","red",0.3,"within",1,465.815776959062
4,"Yes",93,"[1, -1.0, -1.0]","[1, -0.4, 0.19999999999999996]","red","pink",1.2,"across",1,469.31048296392
4,"Yes",94,"[1, -0.475, 0.050000000000000044]","[1, -0.55, -0.10000000000000009]","pink","pink",0.15,"within",1,724.962057778612
4,"Yes",95,"[1, -0.4, 0.19999999999999996]","[1, -0.55, -0.10000000000000009]","pink","pink",0.3,"within",1,457.056869985536
4,"Yes",96,"[1, -0.32500000000000007, 0.34999999999999987]","[1, -0.775, -0.55]","pink","red",0.9,"across",1,426.130402833223
4,"Yes",97,"[1, -0.55, -0.10000000000000009]","[1, -0.775, -0.55]","pink","red",0.45,"across",1,487.882523098961
4,"Yes",98,"[1, -0.32500000000000007, 0.34999999999999987]","[1, -1.0, -1.0]","pink","red",1.35,"across",1,418.616106035188
4,"Yes",99,"[1, -0.625, -0.25]","[1, -0.7, -0.4]","pink","red",0.15,"across",1,472.299322020262
4,"Yes",100,"[1, -0.625, -0.25]","[1, -0.32500000000000007, 0.34999999999999987]","pink","pink",0.6,"within",1,486.589920939878
4,"Yes",101,"[1, -0.475, 0.050000000000000044]","[1, -0.925, -0.85]","pink","red",0.9,"across",1,440.396028803661
4,"Yes",102,"[1, -0.4, 0.19999999999999996]","[1, -0.925, -0.85]","pink","red",1.05,"across",1,349.236299982294
4,"Yes",103,"[1, -0.625, -0.25]","[1, -0.85, -0.7]","pink","red",0.45,"across",1,581.507483031601
4,"Yes",104,"[1, -0.4, 0.19999999999999996]","[1, -0.775, -0.55]","pink","red",0.75,"across",1,394.188854144886
4,"Yes",105,"[1, -0.925, -0.85]","[1, -0.85, -0.7]","red","red",0.15,"within",1,2588.49903009832
4,"Yes",106,"[1, -0.625, -0.25]","[1, -1.0, -1.0]","pink","red",0.75,"across",1,481.882303953171
4,"Yes",107,"[1, -0.7, -0.4]","[1, -0.625, -0.25]","red","pink",0.15,"across",1,531.81659989059
4,"Yes",108,"[1, -0.925, -0.85]","[1, -0.55, -0.10000000000000009]","red","pink",0.75,"across",1,546.528280014172
4,"Yes",109,"[1, -1.0, -1.0]","[1, -0.925, -0.85]","red","red",0.15,"within",1,3533.68093213066
4,"Yes",110,"[1, -0.85, -0.7]","[1, -0.925, -0.85]","red","red",0.15,"within",1,1763.83486320265
4,"Yes",111,"[1, -0.625, -0.25]","[1, -0.775, -0.55]","pink","red",0.3,"across",1,615.122781833634
4,"Yes",112,"[1, -0.625, -0.25]","[1, -0.4, 0.19999999999999996]","pink","pink",0.45,"within",1,449.514447012916
4,"Yes",113,"[1, -0.85, -0.7]","[1, -0.4, 0.19999999999999996]","red","pink",0.9,"across",1,434.662013081834
4,"Yes",114,"[1, -0.55, -0.10000000000000009]","[1, -0.625, -0.25]","pink","pink",0.15,"within",1,710.50443011336
4,"Yes",115,"[1, -0.85, -0.7]","[1, -0.32500000000000007, 0.34999999999999987]","red","pink",1.05,"across",1,469.794347882271
4,"Yes",116,"[1, -0.7, -0.4]","[1, -0.85, -0.7]","red","red",0.3,"within",1,749.390584882349
4,"Yes",117,"[1, -0.7, -0.4]","[1, -0.475, 0.050000000000000044]","red","pink",0.45,"across",1,537.614153930917
4,"Yes",118,"[1, -1.0, -1.0]","[1, -0.85, -0.7]","red","red",0.3,"within",1,940.97217801027
4,"Yes",119,"[1, -0.475, 0.050000000000000044]","[1, -0.7, -0.4]","pink","red",0.45,"across",1,527.555827982724
4,"Yes",120,"[1, -0.7, -0.4]","[1, -0.32500000000000007, 0.34999999999999987]","red","pink",0.75,"across",1,448.275966802612
4,"Yes",121,"[1, -0.925, -0.85]","[1, -0.775, -0.55]","red","red",0.3,"within",1,589.42620200105
4,"Yes",122,"[1, -0.7, -0.4]","[1, -0.775, -0.55]","red","red",0.15,"within",1,756.062946980819
4,"Yes",123,"[1, -0.32500000000000007, 0.34999999999999987]","[1, -0.4, 0.19999999999999996]","pink","pink",0.15,"within",1,527.75617595762
4,"Yes",124,"[1, -0.625, -0.25]","[1, -0.55, -0.10000000000000009]","pink","pink",0.15,"within",1,1071.73028797843
4,"Yes",125,"[1, -0.475, 0.050000000000000044]","[1, -0.85, -0.7]","pink","red",0.75,"across",1,494.808830786496
4,"Yes",126,"[1, -0.4, 0.19999999999999996]","[1, -0.85, -0.7]","pink","red",0.9,"across",1,528.013754170388
4,"Yes",127,"[1, -0.775, -0.55]","[1, -0.625, -0.25]","red","pink",0.3,"across",1,949.874967103824
4,"Yes",128,"[1, -0.85, -0.7]","[1, -0.55, -0.10000000000000009]","red","pink",0.6,"across",1,894.424113910645
4,"Yes",129,"[1, -0.55, -0.10000000000000009]","[1, -1.0, -1.0]","pink","red",0.9,"across",1,566.52011605911
4,"Yes",130,"[1, -1.0, -1.0]","[1, -0.32500000000000007, 0.34999999999999987]","red","pink",1.35,"across",1,1181.80943303742
4,"Yes",132,"[1, -0.7, -0.4]","[1, -0.925, -0.85]","red","red",0.45,"within",1,606.07802704908
4,"Yes",133,"[1, -0.775, -0.55]","[1, -0.85, -0.7]","red","red",0.15,"within",1,1518.0726419203
4,"Yes",134,"[1, -1.0, -1.0]","[1, -0.625, -0.25]","red","pink",0.75,"across",1,499.044427182525
4,"Yes",135,"[1, -1.0, -1.0]","[1, -0.55, -0.10000000000000009]","red","pink",0.9,"across",1,454.187480965629
4,"Yes",136,"[1, -0.7, -0.4]","[1, -0.4, 0.19999999999999996]","red","pink",0.6,"across",1,539.307188941166
4,"Yes",137,"[1, -1.0, -1.0]","[1, -0.775, -0.55]","red","red",0.45,"within",1,929.117301944643
4,"Yes",138,"[1, -0.55, -0.10000000000000009]","[1, -0.85, -0.7]","pink","red",0.6,"across",1,751.531780930236
4,"Yes",139,"[1, -0.85, -0.7]","[1, -0.775, -0.55]","red","red",0.15,"within",1,714.476515073329
4,"Yes",140,"[1, -0.85, -0.7]","[1, -0.475, 0.050000000000000044]","red","pink",0.75,"across",1,469.875246053562
4,"Yes",141,"[1, -0.925, -0.85]","[1, -0.32500000000000007, 0.34999999999999987]","red","pink",1.2,"across",1,514.40736814402
4,"Yes",142,"[1, -0.32500000000000007, 0.34999999999999987]","[1, -0.85, -0.7]","pink","red",1.05,"across",1,423.046046169475
4,"Yes",143,"[1, -0.475, 0.050000000000000044]","[1, -0.32500000000000007, 0.34999999999999987]","pink","pink",0.3,"within",1,962.228571996093
4,"Yes",144,"[1, -0.925, -0.85]","[1, -0.4, 0.19999999999999996]","red","pink",1.05,"across",1,440.856031840667
4,"Yes",145,"[1, -0.925, -0.85]","[1, -0.625, -0.25]","red","pink",0.6,"across",1,522.581194993109
4,"Yes",146,"[1, -0.4, 0.19999999999999996]","[1, -1.0, -1.0]","pink","red",1.2,"across",1,527.047696057707
4,"Yes",147,"[1, -0.85, -0.7]","[1, -1.0, -1.0]","red","red",0.3,"within",1,1073.00867885351
4,"Yes",148,"[1, -0.925, -0.85]","[1, -0.475, 0.050000000000000044]","red","pink",0.9,"across",1,413.698427146301
4,"Yes",149,"[1, -0.475, 0.050000000000000044]","[1, -0.4, 0.19999999999999996]","pink","pink",0.15,"within",1,1122.37289710902
4,"Yes",150,"[1, -0.4, 0.19999999999999996]","[1, -0.7, -0.4]","pink","red",0.6,"across",1,414.330170024186
4,"Yes",151,"[1, -0.32500000000000007, 0.34999999999999987]","[1, -0.7, -0.4]","pink","red",0.75,"across",1,463.684002868831
4,"Yes",152,"[1, -0.475, 0.050000000000000044]","[1, -1.0, -1.0]","pink","red",1.05,"across",1,456.869496963918
4,"Yes",153,"[1, -0.475, 0.050000000000000044]","[1, -0.625, -0.25]","pink","pink",0.3,"within",1,417.280954075977
4,"Yes",154,"[1, -1.0, -1.0]","[1, -0.475, 0.050000000000000044]","red","pink",1.05,"across",1,438.603874063119
4,"Yes",155,"[1, -0.55, -0.10000000000000009]","[1, -0.7, -0.4]","pink","red",0.3,"across",1,792.364831082523
4,"Yes",156,"[1, -0.775, -0.55]","[1, -0.4, 0.19999999999999996]","red","pink",0.75,"across",1,406.183735933155
4,"Yes",157,"[1, -0.925, -0.85]","[1, -0.7, -0.4]","red","red",0.45,"within",1,480.171371018514
4,"Yes",158,"[1, -0.85, -0.7]","[1, -0.625, -0.25]","red","pink",0.45,"across",1,458.893812960014
4,"Yes",159,"[1, -0.55, -0.10000000000000009]","[1, -0.925, -0.85]","pink","red",0.75,"across",1,480.108249001205
4,"Yes",160,"[1, -0.55, -0.10000000000000009]","[1, -0.32500000000000007, 0.34999999999999987]","pink","pink",0.45,"within",1,498.95508098416
4,"Yes",161,"[1, -0.775, -0.55]","[1, -0.55, -0.10000000000000009]","red","pink",0.45,"across",1,460.58027795516
4,"Yes",162,"[1, -0.625, -0.25]","[1, -0.925, -0.85]","pink","red",0.6,"across",1,437.99142097123
4,"Yes",163,"[1, -0.32500000000000007, 0.34999999999999987]","[1, -0.625, -0.25]","pink","pink",0.6,"within",1,410.657163942233
4,"Yes",164,"[1, -0.775, -0.55]","[1, -1.0, -1.0]","red","red",0.45,"within",1,459.243759978563
4,"Yes",165,"[1, -0.32500000000000007, 0.34999999999999987]","[1, -0.55, -0.10000000000000009]","pink","pink",0.45,"within",1,415.575212100521
4,"Yes",167,"[1, -0.85, -0.7]","[1, -0.7, -0.4]","red","red",0.3,"within",1,529.854691820219
4,"Yes",168,"[1, -0.32500000000000007, 0.34999999999999987]","[1, -0.475, 0.050000000000000044]","pink","pink",0.3,"within",1,519.132385961711
4,"Yes",169,"[1, -0.775, -0.55]","[1, -0.32500000000000007, 0.34999999999999987]","red","pink",0.9,"across",1,501.311138970777
4,"Yes",170,"[1, -0.475, 0.050000000000000044]","[1, -0.775, -0.55]","pink","red",0.6,"across",1,536.426628008485
4,"Yes",171,"[1, -0.7, -0.4]","[1, -1.0, -1.0]","red","red",0.6,"within",1,478.597267065197
4,"Yes",172,"[1, -0.625, -0.25]","[1, -0.475, 0.050000000000000044]","pink","pink",0.3,"within",1,467.53107313998
4,"Yes",173,"[1, -0.55, -0.10000000000000009]","[1, -0.475, 0.050000000000000044]","pink","pink",0.15,"within",1,751.882257172838
4,"Yes",174,"[1, -0.4, 0.19999999999999996]","[1, -0.625, -0.25]","pink","pink",0.45,"within",1,695.713068125769
4,"Yes",175,"[1, -0.32500000000000007, 0.34999999999999987]","[1, -0.925, -0.85]","pink","red",1.2,"across",1,453.40143982321
4,"Yes",176,"[1, -0.775, -0.55]","[1, -0.475, 0.050000000000000044]","red","pink",0.6,"across",1,362.043542088941
4,"Yes",177,"[1, -1.0, -1.0]","[1, -0.7, -0.4]","red","red",0.6,"within",1,492.466189898551
4,"Yes",178,"[1, -0.7, -0.4]","[1, -0.55, -0.10000000000000009]","red","pink",0.3,"across",1,437.762225978076
4,"Yes",179,"[1, -0.925, -0.85]","[1, -1.0, -1.0]","red","red",0.15,"within",1,391.691889148206
4,"Yes",180,"[1, -0.4, 0.19999999999999996]","[1, -0.475, 0.050000000000000044]","pink","pink",0.15,"within",1,764.253320172429
5,"Yes",1,"[1, -0.4, 0.19999999999999996]","[1, -0.55, -0.10000000000000009]","red","pink",0.3,"across",1,1359.86944000001
5,"Yes",2,"[1, -0.475, 0.050000000000000044]","[1, -0.85, -0.7]","pink","red",0.75,"across",1,800.713813333232
5,"Yes",3,"[1, -0.475, 0.050000000000000044]","[1, -0.4, 0.19999999999999996]","pink","red",0.15,"across",1,2696.48127999994
5,"Yes",4,"[1, -1.0, -1.0]","[1, -0.7, -0.4]","red","pink",0.6,"across",1,895.287039999857
5,"Yes",5,"[1, -0.4, 0.19999999999999996]","[1, -0.85, -0.7]","red","red",0.9,"within",1,1013.59402666662
5,"Yes",7,"[1, -0.55, -0.10000000000000009]","[1, -0.32500000000000007, 0.34999999999999987]","pink","pink",0.45,"within",1,806.257920000007
5,"Yes",8,"[1, -0.7, -0.4]","[1, -0.4, 0.19999999999999996]","pink","red",0.6,"across",1,874.07488000008
5,"Yes",9,"[1, -0.775, -0.55]","[1, -0.7, -0.4]","red","pink",0.15,"across",1,889.143039999908
5,"Yes",10,"[1, -0.775, -0.55]","[1, -0.625, -0.25]","red","pink",0.3,"across",1,904.78165333343
5,"Yes",11,"[1, -0.925, -0.85]","[1, -0.625, -0.25]","red","pink",0.6,"across",1,671.767040000077
5,"Yes",13,"[1, -0.4, 0.19999999999999996]","[1, -1.0, -1.0]","red","red",1.2,"within",1,759.83999999994
5,"Yes",14,"[1, -0.32500000000000007, 0.34999999999999987]","[1, -0.475, 0.050000000000000044]","pink","pink",0.3,"within",1,1096.76714666671
5,"Yes",15,"[1, -0.4, 0.19999999999999996]","[1, -0.625, -0.25]","red","pink",0.45,"across",1,709.960106666585
5,"Yes",17,"[1, -0.625, -0.25]","[1, -0.32500000000000007, 0.34999999999999987]","pink","pink",0.6,"within",1,616.947199999913
5,"Yes",18,"[1, -0.775, -0.55]","[1, -0.85, -0.7]","red","red",0.15,"within",1,1924.94080000006
5,"Yes",19,"[1, -0.775, -0.55]","[1, -0.475, 0.050000000000000044]","red","pink",0.6,"across",1,786.056959999996
5,"Yes",20,"[1, -0.775, -0.55]","[1, -0.32500000000000007, 0.34999999999999987]","red","pink",0.9,"across",1,787.610026666471
5,"Yes",21,"[1, -1.0, -1.0]","[1, -0.775, -0.55]","red","red",0.45,"within",1,897.705813333232
5,"Yes",23,"[1, -0.625, -0.25]","[1, -0.85, -0.7]","pink","red",0.45,"across",1,836.03541333332
5,"Yes",24,"[1, -0.85, -0.7]","[1, -0.55, -0.10000000000000009]","red","pink",0.6,"across",1,902.741333333324
5,"Yes",25,"[1, -0.475, 0.050000000000000044]","[1, -0.775, -0.55]","pink","red",0.6,"across",1,837.859413333263
5,"Yes",26,"[1, -0.925, -0.85]","[1, -0.4, 0.19999999999999996]","red","red",1.05,"within",1,935.086506666721
5,"Yes",27,"[1, -0.85, -0.7]","[1, -1.0, -1.0]","red","red",0.3,"within",1,3858.04544000007
5,"Yes",28,"[1, -0.55, -0.10000000000000009]","[1, -0.85, -0.7]","pink","red",0.6,"across",1,629.085013333224
5,"Yes",29,"[1, -0.55, -0.10000000000000009]","[1, -0.925, -0.85]","pink","red",0.75,"across",1,748.021759999801
5,"Yes",30,"[1, -1.0, -1.0]","[1, -0.32500000000000007, 0.34999999999999987]","red","pink",1.35,"across",1,1057.4690133335
5,"Yes",31,"[1, -0.55, -0.10000000000000009]","[1, -0.775, -0.55]","pink","red",0.45,"across",1,611.650560000044
5,"Yes",32,"[1, -0.475, 0.050000000000000044]","[1, -0.925, -0.85]","pink","red",0.9,"across",1,679.765760000009
5,"Yes",33,"[1, -0.925, -0.85]","[1, -1.0, -1.0]","red","red",0.15,"within",1,881.226666666635
5,"Yes",34,"[1, -0.85, -0.7]","[1, -0.475, 0.050000000000000044]","red","pink",0.75,"across",1,587.30965333325
5,"Yes",35,"[1, -0.85, -0.7]","[1, -0.625, -0.25]","red","pink",0.45,"across",1,826.948266666477
5,"Yes",36,"[1, -0.475, 0.050000000000000044]","[1, -0.55, -0.10000000000000009]","pink","pink",0.15,"within",1,3310.2075733334
5,"Yes",37,"[1, -0.625, -0.25]","[1, -0.55, -0.10000000000000009]","pink","pink",0.15,"within",1,667.981226666598
5,"Yes",38,"[1, -0.85, -0.7]","[1, -0.775, -0.55]","red","red",0.15,"within",1,1114.88000000008
5,"Yes",39,"[1, -0.7, -0.4]","[1, -0.32500000000000007, 0.34999999999999987]","pink","pink",0.75,"within",1,721.131093333497
5,"Yes",40,"[1, -0.85, -0.7]","[1, -0.4, 0.19999999999999996]","red","red",0.9,"within",1,651.129599999877
5,"Yes",41,"[1, -0.55, -0.10000000000000009]","[1, -0.475, 0.050000000000000044]","pink","pink",0.15,"within",1,1454.67861333327
5,"Yes",42,"[1, -0.925, -0.85]","[1, -0.55, -0.10000000000000009]","red","pink",0.75,"across",1,725.853440000037
5,"Yes",43,"[1, -0.7, -0.4]","[1, -1.0, -1.0]","pink","red",0.6,"across",1,792.861866666499
5,"Yes",44,"[1, -1.0, -1.0]","[1, -0.55, -0.10000000000000009]","red","pink",0.9,"across",1,1189.97375999993
5,"Yes",45,"[1, -0.475, 0.050000000000000044]","[1, -1.0, -1.0]","pink","red",1.05,"across",1,601.901653333243
5,"Yes",46,"[1, -0.4, 0.19999999999999996]","[1, -0.925, -0.85]","red","red",1.05,"within",1,774.523306666651
5,"Yes",47,"[1, -0.775, -0.55]","[1, -0.55, -0.10000000000000009]","red","pink",0.45,"across",1,869.975893333503
5,"Yes",49,"[1, -0.625, -0.25]","[1, -0.475, 0.050000000000000044]","pink","pink",0.3,"within",1,914.114986666618
5,"Yes",50,"[1, -0.85, -0.7]","[1, -0.32500000000000007, 0.34999999999999987]","red","pink",1.05,"across",1,786.887253333362
5,"Yes",51,"[1, -0.625, -0.25]","[1, -0.4, 0.19999999999999996]","pink","red",0.45,"across",1,584.91178666668
5,"Yes",52,"[1, -1.0, -1.0]","[1, -0.475, 0.050000000000000044]","red","pink",1.05,"across",1,756.113066666558
5,"Yes",53,"[1, -0.775, -0.55]","[1, -0.4, 0.19999999999999996]","red","red",0.75,"within",1,558.570666666583
5,"Yes",54,"[1, -0.775, -0.55]","[1, -1.0, -1.0]","red","red",0.45,"within",1,912.564053333199
5,"Yes",55,"[1, -0.32500000000000007, 0.34999999999999987]","[1, -0.85, -0.7]","pink","red",1.05,"across",1,858.951680000018
5,"Yes",56,"[1, -0.475, 0.050000000000000044]","[1, -0.625, -0.25]","pink","pink",0.3,"within",1,906.695680000212
5,"Yes",57,"[1, -0.7, -0.4]","[1, -0.925, -0.85]","pink","red",0.45,"across",1,938.464853333471
5,"Yes",58,"[1, -0.625, -0.25]","[1, -1.0, -1.0]","pink","red",0.75,"across",1,763.706026666569
5,"Yes",59,"[1, -0.4, 0.19999999999999996]","[1, -0.775, -0.55]","red","red",0.75,"within",1,777.330773333233
5,"Yes",60,"[1, -0.4, 0.19999999999999996]","[1, -0.7, -0.4]","red","pink",0.6,"across",1,745.553493333318
5,"Yes",61,"[1, -0.55, -0.10000000000000009]","[1, -0.4, 0.19999999999999996]","pink","red",0.3,"across",1,766.229333333513
5,"Yes",62,"[1, -0.475, 0.050000000000000044]","[1, -0.32500000000000007, 0.34999999999999987]","pink","pink",0.3,"within",1,967.691520000017
5,"Yes",63,"[1, -0.4, 0.19999999999999996]","[1, -0.32500000000000007, 0.34999999999999987]","red","pink",0.15,"across",1,1917.75317333349
5,"Yes",64,"[1, -0.775, -0.55]","[1, -0.925, -0.85]","red","red",0.3,"within",1,1242.94101333317
5,"Yes",65,"[1, -0.475, 0.050000000000000044]","[1, -0.7, -0.4]","pink","pink",0.45,"within",1,651.032746666715
5,"Yes",66,"[1, -0.55, -0.10000000000000009]","[1, -1.0, -1.0]","pink","red",0.9,"across",1,882.533546666764
5,"Yes",67,"[1, -0.32500000000000007, 0.34999999999999987]","[1, -0.7, -0.4]","pink","pink",0.75,"within",1,771.61344000001
5,"Yes",68,"[1, -0.55, -0.10000000000000009]","[1, -0.7, -0.4]","pink","pink",0.3,"within",1,1196.02090666672
5,"Yes",69,"[1, -0.7, -0.4]","[1, -0.85, -0.7]","pink","red",0.3,"across",1,818.187093333336
5,"Yes",70,"[1, -0.625, -0.25]","[1, -0.775, -0.55]","pink","red",0.3,"across",1,1073.23648000011
5,"Yes",71,"[1, -0.85, -0.7]","[1, -0.925, -0.85]","red","red",0.15,"within",1,2095.4402133334
5,"Yes",72,"[1, -0.7, -0.4]","[1, -0.55, -0.10000000000000009]","pink","pink",0.3,"within",1,983.051093333188
5,"Yes",73,"[1, -0.625, -0.25]","[1, -0.7, -0.4]","pink","pink",0.15,"within",1,889.560320000101
5,"Yes",74,"[1, -0.32500000000000007, 0.34999999999999987]","[1, -0.55, -0.10000000000000009]","pink","pink",0.45,"within",1,1109.62730666665
5,"Yes",75,"[1, -0.32500000000000007, 0.34999999999999987]","[1, -1.0, -1.0]","pink","red",1.35,"across",1,729.316266666501
5,"Yes",76,"[1, -0.85, -0.7]","[1, -0.7, -0.4]","red","pink",0.3,"across",1,767.214506666505
5,"Yes",77,"[1, -1.0, -1.0]","[1, -0.625, -0.25]","red","pink",0.75,"across",1,669.25610666658
5,"Yes",78,"[1, -0.925, -0.85]","[1, -0.7, -0.4]","red","pink",0.45,"across",1,978.920106666692
5,"Yes",79,"[1, -0.7, -0.4]","[1, -0.475, 0.050000000000000044]","pink","pink",0.45,"within",1,662.393600000087
5,"Yes",80,"[1, -0.925, -0.85]","[1, -0.775, -0.55]","red","red",0.3,"within",1,1134.13418666664
5,"Yes",81,"[1, -0.925, -0.85]","[1, -0.32500000000000007, 0.34999999999999987]","red","pink",1.2,"across",1,508.394666666618
5,"Yes",82,"[1, -1.0, -1.0]","[1, -0.85, -0.7]","red","red",0.3,"within",1,2913.58634666653
5,"Yes",83,"[1, -0.625, -0.25]","[1, -0.925, -0.85]","pink","red",0.6,"across",1,1019.41376000013
5,"Yes",84,"[1, -0.4, 0.19999999999999996]","[1, -0.475, 0.050000000000000044]","red","pink",0.15,"across",1,3276.2743466667
5,"Yes",85,"[1, -0.925, -0.85]","[1, -0.85, -0.7]","red","red",0.15,"within",1,1513.84746666668
5,"Yes",86,"[1, -1.0, -1.0]","[1, -0.4, 0.19999999999999996]","red","red",1.2,"within",1,737.537280000197
5,"Yes",87,"[1, -0.32500000000000007, 0.34999999999999987]","[1, -0.625, -0.25]","pink","pink",0.6,"within",1,860.425813333222
5,"Yes",88,"[1, -0.925, -0.85]","[1, -0.475, 0.050000000000000044]","red","pink",0.9,"across",1,851.678720000109
5,"Yes",89,"[1, -0.32500000000000007, 0.34999999999999987]","[1, -0.925, -0.85]","pink","red",1.2,"across",1,864.660479999884
5,"Yes",90,"[1, -0.32500000000000007, 0.34999999999999987]","[1, -0.775, -0.55]","pink","red",0.9,"across",1,740.906240000186
5,"Yes",91,"[1, -0.4, 0.19999999999999996]","[1, -0.32500000000000007, 0.34999999999999987]","red","pink",0.15,"across",1,1433.76042666659
5,"Yes",92,"[1, -0.925, -0.85]","[1, -0.625, -0.25]","red","pink",0.6,"across",1,726.41408000004
5,"Yes",93,"[1, -0.4, 0.19999999999999996]","[1, -0.475, 0.050000000000000044]","red","pink",0.15,"across",1,1483.8741333333
5,"Yes",94,"[1, -0.32500000000000007, 0.34999999999999987]","[1, -0.55, -0.10000000000000009]","pink","pink",0.45,"within",1,783.967573333257
5,"Yes",95,"[1, -0.85, -0.7]","[1, -0.775, -0.55]","red","red",0.15,"within",1,1187.63178666677
5,"Yes",96,"[1, -0.4, 0.19999999999999996]","[1, -1.0, -1.0]","red","red",1.2,"within",1,759.179520000089
5,"Yes",97,"[1, -0.7, -0.4]","[1, -0.4, 0.19999999999999996]","pink","red",0.6,"across",1,695.286613333337
5,"Yes",98,"[1, -0.4, 0.19999999999999996]","[1, -0.85, -0.7]","red","red",0.9,"within",1,679.931733333206
5,"Yes",99,"[1, -0.4, 0.19999999999999996]","[1, -0.775, -0.55]","red","red",0.75,"within",1,1165.81845333326
5,"Yes",100,"[1, -0.775, -0.55]","[1, -0.7, -0.4]","red","pink",0.15,"across",1,1421.67210666662
5,"Yes",101,"[1, -0.55, -0.10000000000000009]","[1, -0.625, -0.25]","pink","pink",0.15,"within",1,855.781546666549
5,"Yes",102,"[1, -0.775, -0.55]","[1, -0.925, -0.85]","red","red",0.3,"within",1,981.839359999867
5,"Yes",103,"[1, -0.775, -0.55]","[1, -0.55, -0.10000000000000009]","red","pink",0.45,"across",1,711.369813333476
5,"Yes",104,"[1, -0.7, -0.4]","[1, -0.85, -0.7]","pink","red",0.3,"across",1,816.209920000119
5,"Yes",105,"[1, -0.625, -0.25]","[1, -0.475, 0.050000000000000044]","pink","pink",0.3,"within",1,906.03605333331
5,"Yes",106,"[1, -0.475, 0.050000000000000044]","[1, -1.0, -1.0]","pink","red",1.05,"across",1,664.145066666606
5,"Yes",107,"[1, -0.775, -0.55]","[1, -0.32500000000000007, 0.34999999999999987]","red","pink",0.9,"across",1,629.000106666581
5,"Yes",108,"[1, -1.0, -1.0]","[1, -0.85, -0.7]","red","red",0.3,"within",1,1835.41333333324
5,"Yes",109,"[1, -0.7, -0.4]","[1, -0.775, -0.55]","pink","red",0.15,"across",1,2527.17183999994
5,"Yes",110,"[1, -1.0, -1.0]","[1, -0.55, -0.10000000000000009]","red","pink",0.9,"across",1,770.093653333333
5,"Yes",111,"[1, -0.775, -0.55]","[1, -0.625, -0.25]","red","pink",0.3,"across",1,957.310293333194
5,"Yes",112,"[1, -0.55, -0.10000000000000009]","[1, -0.925, -0.85]","pink","red",0.75,"across",1,673.66314666674
5,"Yes",113,"[1, -0.7, -0.4]","[1, -0.625, -0.25]","pink","pink",0.15,"within",1,1189.00010666675
5,"Yes",114,"[1, -0.32500000000000007, 0.34999999999999987]","[1, -0.4, 0.19999999999999996]","pink","red",0.15,"across",1,3549.11829333332
5,"Yes",115,"[1, -0.32500000000000007, 0.34999999999999987]","[1, -1.0, -1.0]","pink","red",1.35,"across",1,522.571946666631
5,"Yes",116,"[1, -0.475, 0.050000000000000044]","[1, -0.7, -0.4]","pink","pink",0.45,"within",1,711.255466666671
5,"Yes",117,"[1, -0.32500000000000007, 0.34999999999999987]","[1, -0.7, -0.4]","pink","pink",0.75,"within",1,790.673066666614
5,"Yes",119,"[1, -0.55, -0.10000000000000009]","[1, -1.0, -1.0]","pink","red",0.9,"across",1,705.445546666624
5,"Yes",120,"[1, -0.32500000000000007, 0.34999999999999987]","[1, -0.85, -0.7]","pink","red",1.05,"across",1,820.706559999962
5,"Yes",121,"[1, -1.0, -1.0]","[1, -0.625, -0.25]","red","pink",0.75,"across",1,643.322453333212
5,"Yes",122,"[1, -0.475, 0.050000000000000044]","[1, -0.625, -0.25]","pink","pink",0.3,"within",1,1131.95434666659
5,"Yes",123,"[1, -0.7, -0.4]","[1, -0.55, -0.10000000000000009]","pink","pink",0.3,"within",1,784.928000000036
5,"Yes",124,"[1, -0.85, -0.7]","[1, -0.32500000000000007, 0.34999999999999987]","red","pink",1.05,"across",1,1171.66208000003
5,"Yes",125,"[1, -1.0, -1.0]","[1, -0.4, 0.19999999999999996]","red","red",1.2,"within",1,674.242133333337
5,"Yes",126,"[1, -0.85, -0.7]","[1, -0.625, -0.25]","red","pink",0.45,"across",1,1244.25258666679
5,"Yes",127,"[1, -0.625, -0.25]","[1, -0.7, -0.4]","pink","pink",0.15,"within",1,3405.1797333334
5,"Yes",128,"[1, -0.7, -0.4]","[1, -0.475, 0.050000000000000044]","pink","pink",0.45,"within",1,660.510720000048
5,"Yes",129,"[1, -0.775, -0.55]","[1, -1.0, -1.0]","red","red",0.45,"within",1,1319.25930666671
5,"Yes",131,"[1, -1.0, -1.0]","[1, -0.775, -0.55]","red","red",0.45,"within",1,708.797440000126
5,"Yes",132,"[1, -1.0, -1.0]","[1, -0.7, -0.4]","red","pink",0.6,"across",1,677.239040000131
5,"Yes",133,"[1, -0.625, -0.25]","[1, -0.85, -0.7]","pink","red",0.45,"across",1,960.509013333422
5,"Yes",135,"[1, -0.32500000000000007, 0.34999999999999987]","[1, -0.775, -0.55]","pink","red",0.9,"across",1,606.682026666704
5,"Yes",136,"[1, -0.625, -0.25]","[1, -0.925, -0.85]","pink","red",0.6,"across",1,753.332906666628
5,"Yes",137,"[1, -1.0, -1.0]","[1, -0.32500000000000007, 0.34999999999999987]","red","pink",1.35,"across",1,999.831893333294
5,"Yes",138,"[1, -0.4, 0.19999999999999996]","[1, -0.625, -0.25]","red","pink",0.45,"across",1,985.978453333246
5,"Yes",139,"[1, -0.925, -0.85]","[1, -0.85, -0.7]","red","red",0.15,"within",1,1356.56661333337
5,"Yes",140,"[1, -0.7, -0.4]","[1, -1.0, -1.0]","pink","red",0.6,"across",1,669.168639999953
5,"Yes",141,"[1, -0.55, -0.10000000000000009]","[1, -0.4, 0.19999999999999996]","pink","red",0.3,"across",1,695.794346666844
5,"Yes",142,"[1, -0.775, -0.55]","[1, -0.475, 0.050000000000000044]","red","pink",0.6,"across",1,584.972373333358
5,"Yes",143,"[1, -0.55, -0.10000000000000009]","[1, -0.7, -0.4]","pink","pink",0.3,"within",1,807.02122666662
5,"Yes",144,"[1, -0.475, 0.050000000000000044]","[1, -0.925, -0.85]","pink","red",0.9,"across",1,3168.17279999987
5,"Yes",145,"[1, -0.55, -0.10000000000000009]","[1, -0.775, -0.55]","pink","red",0.45,"across",1,2720.28757333328
5,"Yes",146,"[1, -0.475, 0.050000000000000044]","[1, -0.32500000000000007, 0.34999999999999987]","pink","pink",0.3,"within",1,1762.60224000021
5,"Yes",147,"[1, -1.0, -1.0]","[1, -0.475, 0.050000000000000044]","red","pink",1.05,"across",1,975.114666666741
5,"Yes",148,"[1, -0.625, -0.25]","[1, -0.4, 0.19999999999999996]","pink","red",0.45,"across",1,893.653760000007
5,"Yes",149,"[1, -0.925, -0.85]","[1, -1.0, -1.0]","red","red",0.15,"within",1,1856.17023999998
5,"Yes",150,"[1, -0.32500000000000007, 0.34999999999999987]","[1, -0.925, -0.85]","pink","red",1.2,"across",1,1253.85685333345
5,"Yes",151,"[1, -0.625, -0.25]","[1, -1.0, -1.0]","pink","red",0.75,"across",1,966.513919999898
5,"Yes",152,"[1, -0.7, -0.4]","[1, -0.925, -0.85]","pink","red",0.45,"across",1,869.585066666787
5,"Yes",153,"[1, -0.85, -0.7]","[1, -0.4, 0.19999999999999996]","red","red",0.9,"within",1,577.777920000017
5,"Yes",154,"[1, -0.7, -0.4]","[1, -0.32500000000000007, 0.34999999999999987]","pink","pink",0.75,"within",1,620.719360000066
5,"Yes",155,"[1, -0.475, 0.050000000000000044]","[1, -0.775, -0.55]","pink","red",0.6,"across",1,631.920639999862
5,"Yes",156,"[1, -0.925, -0.85]","[1, -0.7, -0.4]","red","pink",0.45,"across",1,757.855573333245
5,"Yes",157,"[1, -0.775, -0.55]","[1, -0.4, 0.19999999999999996]","red","red",0.75,"within",1,600.474026666689
5,"Yes",159,"[1, -0.85, -0.7]","[1, -0.475, 0.050000000000000044]","red","pink",0.75,"across",1,726.99904000001
5,"Yes",161,"[1, -0.925, -0.85]","[1, -0.775, -0.55]","red","red",0.3,"within",1,856.28799999995
5,"Yes",163,"[1, -0.625, -0.25]","[1, -0.32500000000000007, 0.34999999999999987]","pink","pink",0.6,"within",1,584.835413333394
5,"Yes",164,"[1, -0.925, -0.85]","[1, -0.32500000000000007, 0.34999999999999987]","red","pink",1.2,"across",1,682.637653333359
5,"Yes",165,"[1, -0.4, 0.19999999999999996]","[1, -0.55, -0.10000000000000009]","red","pink",0.3,"across",1,529.733546666648
5,"Yes",166,"[1, -0.55, -0.10000000000000009]","[1, -0.32500000000000007, 0.34999999999999987]","pink","pink",0.45,"within",1,673.532159999922
5,"Yes",167,"[1, -0.4, 0.19999999999999996]","[1, -0.925, -0.85]","red","red",1.05,"within",1,534.008746666586
5,"Yes",168,"[1, -0.85, -0.7]","[1, -0.7, -0.4]","red","pink",0.3,"across",1,772.284586666729
5,"Yes",169,"[1, -0.4, 0.19999999999999996]","[1, -0.7, -0.4]","red","pink",0.6,"across",1,606.000213333346
5,"Yes",170,"[1, -0.55, -0.10000000000000009]","[1, -0.85, -0.7]","pink","red",0.6,"across",1,805.839359999936
5,"Yes",171,"[1, -0.925, -0.85]","[1, -0.4, 0.19999999999999996]","red","red",1.05,"within",1,557.100800000171
5,"Yes",172,"[1, -0.925, -0.85]","[1, -0.475, 0.050000000000000044]","red","pink",0.9,"across",1,473.342720000119
5,"Yes",173,"[1, -0.475, 0.050000000000000044]","[1, -0.55, -0.10000000000000009]","pink","pink",0.15,"within",1,885.282133333249
5,"Yes",174,"[1, -0.475, 0.050000000000000044]","[1, -0.85, -0.7]","pink","red",0.75,"across",1,531.526826666777
5,"Yes",175,"[1, -0.32500000000000007, 0.34999999999999987]","[1, -0.475, 0.050000000000000044]","pink","pink",0.3,"within",1,655.468373333179
5,"Yes",176,"[1, -0.925, -0.85]","[1, -0.55, -0.10000000000000009]","red","pink",0.75,"across",1,538.167039999962
5,"Yes",177,"[1, -0.775, -0.55]","[1, -0.85, -0.7]","red","red",0.15,"within",1,859.240959999852
5,"Yes",178,"[1, -0.32500000000000007, 0.34999999999999987]","[1, -0.625, -0.25]","pink","pink",0.6,"within",1,534.145279999848
5,"Yes",179,"[1, -0.625, -0.25]","[1, -0.775, -0.55]","pink","red",0.3,"across",1,539.302826666699
5,"Yes",180,"[1, -0.85, -0.7]","[1, -0.55, -0.10000000000000009]","red","pink",0.6,"across",1,644.207786666584
6,"Yes",1,"[1, -0.475, 0.050000000000000044]","[1, -0.55, -0.10000000000000009]","red","red",0.15,"within",1,2174.8942109989
6,"Yes",2,"[1, -1.0, -1.0]","[1, -0.7, -0.4]","red","red",0.6,"within",1,2231.22581499047
6,"Yes",3,"[1, -0.625, -0.25]","[1, -0.4, 0.19999999999999996]","red","pink",0.45,"across",1,1255.54623099742
6,"Yes",4,"[1, -0.55, -0.10000000000000009]","[1, -0.4, 0.19999999999999996]","red","pink",0.3,"across",1,1015.44623100199
6,"Yes",5,"[1, -0.475, 0.050000000000000044]","[1, -0.85, -0.7]","red","red",0.75,"within",1,655.693006003276
6,"Yes",6,"[1, -0.625, -0.25]","[1, -0.85, -0.7]","red","red",0.45,"within",1,792.090603994438
6,"Yes",7,"[1, -0.7, -0.4]","[1, -1.0, -1.0]","red","red",0.6,"within",1,673.149620008189
6,"Yes",8,"[1, -0.85, -0.7]","[1, -0.475, 0.050000000000000044]","red","red",0.75,"within",1,623.454980988754
6,"Yes",9,"[1, -0.925, -0.85]","[1, -1.0, -1.0]","red","red",0.15,"within",1,1889.06943198526
6,"Yes",10,"[1, -0.55, -0.10000000000000009]","[1, -0.925, -0.85]","red","red",0.75,"within",1,671.472607005853
6,"Yes",11,"[1, -0.925, -0.85]","[1, -0.625, -0.25]","red","red",0.6,"within",1,552.545551006915
6,"Yes",12,"[1, -0.55, -0.10000000000000009]","[1, -0.475, 0.050000000000000044]","red","red",0.15,"within",1,1020.55868000025
6,"Yes",13,"[1, -0.625, -0.25]","[1, -0.475, 0.050000000000000044]","red","red",0.3,"within",1,829.743428999791
6,"Yes",14,"[1, -0.4, 0.19999999999999996]","[1, -0.7, -0.4]","pink","red",0.6,"across",1,718.743600009475
6,"Yes",15,"[1, -1.0, -1.0]","[1, -0.625, -0.25]","red","red",0.75,"within",1,852.447075012606
6,"Yes",17,"[1, -0.32500000000000007, 0.34999999999999987]","[1, -0.7, -0.4]","pink","red",0.75,"across",1,599.21193899936
6,"Yes",18,"[1, -0.625, -0.25]","[1, -0.7, -0.4]","red","red",0.15,"within",1,664.736370003084
6,"Yes",19,"[1, -0.775, -0.55]","[1, -0.55, -0.10000000000000009]","red","red",0.45,"within",1,560.733663995052
6,"Yes",20,"[1, -0.32500000000000007, 0.34999999999999987]","[1, -0.85, -0.7]","pink","red",1.05,"across",1,499.673899990739
6,"Yes",21,"[1, -0.775, -0.55]","[1, -0.925, -0.85]","red","red",0.3,"within",1,834.05664601014
6,"Yes",22,"[1, -0.775, -0.55]","[1, -0.4, 0.19999999999999996]","red","pink",0.75,"across",1,561.852169979829
6,"Yes",23,"[1, -1.0, -1.0]","[1, -0.32500000000000007, 0.34999999999999987]","red","pink",1.35,"across",1,492.993871012004
6,"Yes",24,"[1, -0.7, -0.4]","[1, -0.775, -0.55]","red","red",0.15,"within",1,1781.54128501774
6,"Yes",25,"[1, -0.775, -0.55]","[1, -0.625, -0.25]","red","red",0.3,"within",1,750.654404982924
6,"Yes",26,"[1, -0.4, 0.19999999999999996]","[1, -0.625, -0.25]","pink","red",0.45,"across",1,810.380240989616
6,"Yes",27,"[1, -0.85, -0.7]","[1, -0.775, -0.55]","red","red",0.15,"within",1,715.014781017089
6,"Yes",28,"[1, -0.4, 0.19999999999999996]","[1, -0.32500000000000007, 0.34999999999999987]","pink","pink",0.15,"within",1,1905.8198860148
6,"Yes",29,"[1, -1.0, -1.0]","[1, -0.4, 0.19999999999999996]","red","pink",1.2,"across",1,693.584193009883
6,"Yes",30,"[1, -0.55, -0.10000000000000009]","[1, -0.7, -0.4]","red","red",0.3,"within",1,1092.85733199795
6,"Yes",31,"[1, -0.775, -0.55]","[1, -1.0, -1.0]","red","red",0.45,"within",1,1221.595762996
6,"Yes",32,"[1, -0.925, -0.85]","[1, -0.7, -0.4]","red","red",0.45,"within",1,942.192011018051
6,"Yes",33,"[1, -0.775, -0.55]","[1, -0.85, -0.7]","red","red",0.15,"within",1,1146.55149300233
6,"Yes",34,"[1, -0.85, -0.7]","[1, -0.55, -0.10000000000000009]","red","red",0.6,"within",1,854.04988299706
6,"Yes",35,"[1, -0.4, 0.19999999999999996]","[1, -0.775, -0.55]","pink","red",0.75,"across",1,1038.34961098619
